block,cue_direction,cue_text,probe_image_file,correct_response,thisN,thisTrialN,thisRepN,key_resp_probe.keys,key_resp_probe.corr,key_resp_probe.rt,key_resp_probe.duration,rating_vividness.response,rating_vividness.rt,key_resp_rating.keys,key_resp_rating.rt,key_resp_rating.duration,key_resp_break.keys,key_resp_break.rt,key_resp_break.duration,trials_loop.thisRepN,trials_loop.thisTrialN,trials_loop.thisN,trials_loop.thisIndex,thisRow.t,notes,instr_task.started,task_instr_text.started,quit_instr.started,instr_task.stopped,quit_instr.keys,quit_instr.rt,quit_instr.duration,start_eeg.started,EEG_start_text.started,exit_eeg_text.started,start_eeg.stopped,exit_eeg_text.keys,exit_eeg_text.rt,exit_eeg_text.duration,image_load.started,image_load_text.started,imag_loader.started,image_load.stopped,trial.started,cue_stim.started,fixation_stim.started,cue_stim.stopped,fixation_stim.stopped,probe_image.started,key_resp_probe.started,probe_image.stopped,resp_instr.started,trial.stopped,trials_loop.key_resp_probe.keys,trials_loop.key_resp_probe.corr,trials_loop.key_resp_probe.rt,trials_loop.key_resp_probe.duration,rating.started,rating_vividness.started,text_rating_question.started,key_resp_rating.started,rating.stopped,trials_loop.rating_vividness.response,trials_loop.rating_vividness.rt,trials_loop.key_resp_rating.keys,trials_loop.key_resp_rating.rt,trials_loop.key_resp_rating.duration,block_break.started,block_break.stopped,trials_loop.key_resp_break.keys,image_load_text.stopped,block_break_text.started,key_resp_break.started,trials_loop.key_resp_break.rt,trials_loop.key_resp_break.duration,end_task.started,end_text.started,exit_end.started,end_task.stopped,exit_end.keys,exit_end.rt,exit_end.duration,participant,session,date,expName,psychopyVersion,frameRate,sequence_good_key,sequence_bad_key,allowed_keys_list,expStart,
,,,,,,,,,,,,,,,,,,,,,,,,,,0.04997020005248487,0.05997420009225607,0.05997420009225607,1.958145699929446,space,1.8947788998484612,None,,,,,,,,,,,,,,,,,,,,,,,,,,,,,,,,,,,,,,,,,,,,,,,,,,,sub-098,001,2025-06-25_15h10.33.860,cued_mental_stim,2024.2.4,120.81292601824202,1,2,"['1', '2']",2025-06-25 15h10.56.758963 -0400,
,,,,,,,,,,,,,,,,,,,,,,,,,,,,,,,,,1.9581734000239521,1.969043399905786,1.969043399905786,2.3730027000419796,space,0.40162909985519946,None,,,,,,,,,,,,,,,,,,,,,,,,,,,,,,,,,,,,,,,,,,,,sub-098,001,2025-06-25_15h10.33.860,cued_mental_stim,2024.2.4,120.81292601824202,1,2,"['1', '2']",2025-06-25 15h10.56.758963 -0400,
1,backward,<- 4,stimuli/new3.png,2,0,0,0,2,1,3.865201100008562,None,None,None,2,3.758410600014031,None,None,,,0,0,0,2,2.3849688000045717,,,,,,,,,,,,,,,,2.377562199952081,2.3849688000045717,0.004564800066873431,2.6809795000590384,2.6899616001173854,2.6972690001130104,4.66390320006758,4.684726899955422,14.659995099995285,17.393510200083256,17.393510200083256,19.389036299893633,19.389036299893633,21.260132600087672,2,1,3.865201100008562,None,21.26074009994045,21.276754399994388,21.276754399994388,21.276754399994388,25.036199300084263,None,None,2,3.758410600014031,None,25.03634040011093,25.036355999996886,None,,,,,,,,,,,,,sub-098,001,2025-06-25_15h10.33.860,cued_mental_stim,2024.2.4,120.81292601824202,1,2,"['1', '2']",2025-06-25 15h10.56.758963 -0400,
3,backward,<- 4,stimuli/new4.png,2,1,1,0,2,1,2.460838200058788,None,None,None,3,1.4613316000904888,None,None,,,0,1,1,80,25.043136300053447,,,,,,,,,,,,,,,,25.036430600099266,25.043136300053447,7.750000804662704e-05,25.3390148000326,25.339936000062153,25.34720510011539,27.330358899896964,27.34304659999907,37.326188599923626,39.24719740008004,39.24719740008004,41.23870490002446,41.23870490002446,41.7142835999839,2,1,2.460838200058788,None,41.71486399997957,41.726010699989274,41.726010699989274,41.726010699989274,43.189549500122666,None,None,3,1.4613316000904888,None,43.18966310005635,43.1896772000473,None,,,,,,,,,,,,,sub-098,001,2025-06-25_15h10.33.860,cued_mental_stim,2024.2.4,120.81292601824202,1,2,"['1', '2']",2025-06-25 15h10.56.758963 -0400,
1,forward,1 ->,stimuli/banane.png,1,2,2,0,1,1,2.4732766998931766,None,None,None,3,1.1897078000474721,None,None,,,0,2,2,5,43.1974704999011,,,,,,,,,,,,,,,,43.18975059990771,43.1974704999011,7.670000195503235e-05,43.49342519999482,43.49576440011151,43.505800999933854,45.480657800100744,45.49734580004588,55.46789929992519,57.425635900115594,57.425635900115594,59.41778440005146,59.43380580004305,59.90565979992971,1,1,2.4732766998931766,None,59.906225099926814,59.91770370001905,59.91770370001905,59.91770370001905,61.11414809990674,None,None,3,1.1897078000474721,None,61.11430869996548,61.1143255000934,None,,,,,,,,,,,,,sub-098,001,2025-06-25_15h10.33.860,cued_mental_stim,2024.2.4,120.81292601824202,1,2,"['1', '2']",2025-06-25 15h10.56.758963 -0400,
2,backward,<- 4,stimuli/new2.png,2,3,3,0,2,1,2.6375631999690086,None,None,None,3,0.8059809000696987,None,None,,,0,3,3,44,61.12187350005843,,,,,,,,,,,,,,,,61.114406399894506,61.12187350005843,8.09000339359045e-05,61.417768500046805,61.4187179999426,61.42597099998966,63.40932220011018,63.417298699961975,73.40101519995369,75.405163400108,75.405163400108,77.39550939993933,77.40378880011849,78.0457502999343,2,1,2.6375631999690086,None,78.04630440007895,78.05341659998521,78.05341659998521,78.05341659998521,78.86354589997791,None,None,3,0.8059809000696987,None,78.86370619991794,78.86372300004587,None,,,,,,,,,,,,,sub-098,001,2025-06-25_15h10.33.860,cued_mental_stim,2024.2.4,120.81292601824202,1,2,"['1', '2']",2025-06-25 15h10.56.758963 -0400,
3,forward,1 ->,stimuli/zèbre.png,1,4,4,0,1,1,2.2875196000095457,None,None,None,3,1.4860406999941915,None,None,,,0,4,4,71,78.87114800000563,,,,,,,,,,,,,,,,78.8638047000859,78.87114800000563,8.25000461190939e-05,79.16775620006956,79.17004709993489,79.18024739995599,81.15917599992827,81.17576469993219,91.15307729993947,92.58851570007391,92.58851570007391,94.57972620008513,94.58823230001144,94.88033100008033,1,1,2.2875196000095457,None,94.880979700014,94.8926436000038,94.8926436000038,94.8926436000038,96.38872259994969,None,None,3,1.4860406999941915,None,96.38899199990556,96.38900960003957,None,,,,,,,,,,,,,sub-098,001,2025-06-25_15h10.33.860,cued_mental_stim,2024.2.4,120.81292601824202,1,2,"['1', '2']",2025-06-25 15h10.56.758963 -0400,
1,backward,<- 4,stimuli/scissor_lure.png,2,5,5,0,2,1,2.4524393000174314,None,None,None,2,1.0417923000641167,None,None,,,0,5,5,31,96.39665449992754,,,,,,,,,,,,,,,,96.38909399998374,96.39665449992754,8.350005373358727e-05,96.6924501999747,96.69341389997862,96.70130489999428,98.6799266000744,98.69640509993769,108.67140950006433,110.24622240010649,110.24622240010649,112.23844210011885,112.246651600115,112.70114369993098,2,1,2.4524393000174314,None,112.70169609994628,112.71342199994251,112.71342199994251,112.71342199994251,113.7634036000818,None,None,2,1.0417923000641167,None,113.76355720008723,113.7635741000995,None,,,,,,,,,,,,,sub-098,001,2025-06-25_15h10.33.860,cued_mental_stim,2024.2.4,120.81292601824202,1,2,"['1', '2']",2025-06-25 15h10.56.758963 -0400,
1,forward,1 ->,stimuli/zèbre.png,1,6,6,0,1,1,2.3191321999765933,None,None,None,4,1.0941262999549508,None,None,,,0,6,6,17,113.77143840002827,,,,,,,,,,,,,,,,113.76365539990366,113.77143840002827,8.139992132782936e-05,114.06717559997924,114.0680792001076,114.07535069994628,116.05892270011827,116.06742170010693,126.0504628000781,128.70788030000404,128.70788030000404,130.7046576999128,130.7127094999887,131.03457330004312,1,1,2.3191321999765933,None,131.03511580009945,131.04640110000037,131.04640110000037,131.04640110000037,132.14637949992903,None,None,4,1.0941262999549508,None,132.1465890998952,132.14660779992118,None,,,,,,,,,,,,,sub-098,001,2025-06-25_15h10.33.860,cued_mental_stim,2024.2.4,120.81292601824202,1,2,"['1', '2']",2025-06-25 15h10.56.758963 -0400,
2,forward,1 ->,stimuli/banane.png,1,7,7,0,1,1,2.258479399839416,None,None,None,4,0.3469291999936104,None,None,,,0,7,7,52,132.15452180011198,,,,,,,,,,,,,,,,132.14669329999015,132.15452180011198,8.420017547905445e-05,132.45040250010788,132.45131279993802,132.45859399996698,134.44229790009558,134.44999459991232,144.43782770005055,146.04057969991118,146.04057969991118,148.0334439999424,148.05001419992186,148.30049149994738,1,1,2.258479399839416,None,148.3010480001103,148.31236459990032,148.31236459990032,148.31236459990032,148.66760340007022,None,None,4,0.3469291999936104,None,148.66775500006042,148.66776879993267,None,,,,,,,,,,,,,sub-098,001,2025-06-25_15h10.33.860,cued_mental_stim,2024.2.4,120.81292601824202,1,2,"['1', '2']",2025-06-25 15h10.56.758963 -0400,
2,forward,1 ->,stimuli/ciseau.png,1,8,8,0,1,1,2.3149075000546873,None,None,None,4,0.9420058000832796,None,None,,,0,8,8,43,148.67474370007403,,,,,,,,,,,,,,,,148.66784249991179,148.67474370007403,7.599988020956516e-05,148.971126700053,148.97202669992112,148.97925229999237,150.9583958000876,150.97516219993122,160.95427129999734,162.5917982000392,162.5917982000392,164.58769119996578,164.59595920005813,164.9128799000755,1,1,2.3149075000546873,None,164.91342919995077,164.9251198999118,164.9251198999118,164.9251198999118,165.87614799989387,None,None,4,0.9420058000832796,None,165.87636879994534,165.8763838999439,None,,,,,,,,,,,,,sub-098,001,2025-06-25_15h10.33.860,cued_mental_stim,2024.2.4,120.81292601824202,1,2,"['1', '2']",2025-06-25 15h10.56.758963 -0400,
1,forward,1 ->,stimuli/zèbre.png,1,9,9,0,1,1,4.2703837000299245,None,None,None,2,1.797735899919644,None,None,,,0,9,9,20,165.8832680999767,,,,,,,,,,,,,,,,165.876461799955,165.8832680999767,7.880013436079025e-05,166.17923199990764,166.1801448999904,166.1873624001164,168.17492919997312,168.1831255001016,178.16439489996992,179.81239009997807,179.81239009997807,181.80819589993916,181.80819589993916,184.08875430002809,1,1,4.2703837000299245,None,184.0893192999065,184.1020756000653,184.1020756000653,184.1020756000653,185.9048238999676,None,None,2,1.797735899919644,None,185.90506940009072,185.90508679999039,None,,,,,,,,,,,,,sub-098,001,2025-06-25_15h10.33.860,cued_mental_stim,2024.2.4,120.81292601824202,1,2,"['1', '2']",2025-06-25 15h10.56.758963 -0400,
2,forward,1 ->,stimuli/banane.png,1,10,10,0,1,1,2.2874046999495476,None,None,None,4,0.7271979001816362,None,None,,,0,10,10,56,185.9126975000836,,,,,,,,,,,,,,,,185.90517439995892,185.9126975000836,8.689984679222107e-05,186.2081073001027,186.20905030006543,186.21649849996902,188.19980950001627,188.2080624999944,198.1916686000768,200.2992561000865,200.2992561000865,202.29168709996156,202.29955190001056,202.59210000000894,1,1,2.2874046999495476,None,202.59268960007466,202.60345000005327,202.60345000005327,202.60345000005327,203.33394840010442,None,None,4,0.7271979001816362,None,203.33410370000638,203.3341202000156,None,,,,,,,,,,,,,sub-098,001,2025-06-25_15h10.33.860,cued_mental_stim,2024.2.4,120.81292601824202,1,2,"['1', '2']",2025-06-25 15h10.56.758963 -0400,
3,backward,<- 4,stimuli/scissor_lure.png,2,11,11,0,2,1,1.6853233000729233,None,None,None,2,1.1135362000204623,None,None,,,0,11,11,66,203.34137369995005,,,,,,,,,,,,,,,,203.33420539996587,203.34137369995005,8.529983460903168e-05,203.6363057999406,203.63728830008768,203.64617369999178,205.62848749989644,205.64546489994973,215.62464769999497,218.55826839990914,218.55826839990914,,,220.2458524000831,2,1,1.6853233000729233,None,220.2464163999539,220.2579191001132,220.2579191001132,220.2579191001132,221.38364130002446,None,None,2,1.1135362000204623,None,221.38380809989758,221.38382290001027,None,,,,,,,,,,,,,sub-098,001,2025-06-25_15h10.33.860,cued_mental_stim,2024.2.4,120.81292601824202,1,2,"['1', '2']",2025-06-25 15h10.56.758963 -0400,
1,backward,<- 4,stimuli/zebra_lure.png,2,12,12,0,2,1,3.2919926999602467,None,None,None,3,2.698802299797535,None,None,,,0,12,12,27,221.39115629997104,,,,,,,,,,,,,,,,221.3839002000168,221.39115629997104,8.09000339359045e-05,221.68912249989808,221.69151949998923,221.700271199923,223.6787090001162,223.6954059000127,233.67461999994703,234.8160645000171,234.8160645000171,236.81181060010567,236.81181060010567,238.11655330006033,2,1,3.2919926999602467,None,238.11709600011818,238.12836310011335,238.12836310011335,238.12836310011335,240.829239099985,None,None,3,2.698802299797535,None,240.82950520003214,240.82953620003536,None,,,,,,,,,,,,,sub-098,001,2025-06-25_15h10.33.860,cued_mental_stim,2024.2.4,120.81292601824202,1,2,"['1', '2']",2025-06-25 15h10.56.758963 -0400,
1,backward,<- 4,stimuli/banana_lure.png,2,13,13,0,2,1,2.3040642000269145,None,None,None,3,1.1167347999289632,None,None,,,0,13,13,9,240.83701790007763,,,,,,,,,,,,,,,,240.8296839001123,240.83701790007763,0.00014939997345209122,241.13281209999695,241.13480010000058,241.1431088000536,243.12430749996565,243.14116299990565,253.11565029993653,256.0674356999807,256.0674356999807,258.0661289000418,258.0661289000418,258.37890139990486,2,1,2.3040642000269145,None,258.3794428999536,258.390836100094,258.390836100094,258.390836100094,259.5118172999937,None,None,3,1.1167347999289632,None,259.5119465999305,259.51196469995193,None,,,,,,,,,,,,,sub-098,001,2025-06-25_15h10.33.860,cued_mental_stim,2024.2.4,120.81292601824202,1,2,"['1', '2']",2025-06-25 15h10.56.758963 -0400,
1,forward,1 ->,stimuli/face.png,1,14,14,0,1,1,2.2411846998147666,None,None,None,4,0.30695090000517666,None,None,,,0,14,14,13,259.51957869995385,,,,,,,,,,,,,,,,259.5120433999691,259.51957869995385,7.830001413822174e-05,259.81592310010456,259.81685140007176,259.8246905999258,261.8074789000675,261.8177752001211,271.79901399998926,274.27396050002426,274.27396050002426,276.2657975999173,276.273982899962,276.5158575999085,1,1,2.2411846998147666,None,276.51642020000145,276.5281799000222,276.5281799000222,276.5281799000222,276.8367914999835,None,None,4,0.30695090000517666,None,276.8370914000552,276.83710859995335,None,,,,,,,,,,,,,sub-098,001,2025-06-25_15h10.33.860,cued_mental_stim,2024.2.4,120.81292601824202,1,2,"['1', '2']",2025-06-25 15h10.56.758963 -0400,
1,backward,<- 4,stimuli/new3.png,2,15,15,0,2,1,2.5151213000062853,None,None,None,2,1.7803488001227379,None,None,,,0,15,15,10,276.8449613000266,,,,,,,,,,,,,,,,276.837191300001,276.8449613000266,8.240016177296638e-05,277.14073430001736,277.142684499966,277.1486315000802,279.1283174001146,279.1442807998974,289.11550739989616,291.3600182000082,291.3600182000082,293.3571301000193,293.3653051999863,293.8826369999442,2,1,2.5151213000062853,None,293.88320429995656,293.8947435999289,293.8947435999289,293.8947435999289,295.68241899996065,None,None,2,1.7803488001227379,None,295.68257010006346,295.682586699957,None,,,,,,,,,,,,,sub-098,001,2025-06-25_15h10.33.860,cued_mental_stim,2024.2.4,120.81292601824202,1,2,"['1', '2']",2025-06-25 15h10.56.758963 -0400,
2,backward,<- 4,stimuli/zebra_lure.png,2,16,16,0,2,1,2.3610626000445336,None,None,None,2,1.2064567999914289,None,None,,,0,16,16,47,295.6903011999093,,,,,,,,,,,,,,,,295.68267260002904,295.6903011999093,8.619995787739754e-05,295.991140200058,295.9921146999113,295.9987786000129,297.9735467999708,297.9904118999839,307.9698383999057,310.0023642999586,310.0023642999586,311.9889923001174,311.9974183999002,312.36436080001295,2,1,2.3610626000445336,None,312.3648983000312,312.37225040001795,312.37225040001795,312.37225040001795,313.5911898999475,None,None,2,1.2064567999914289,None,313.5913492999971,313.5913635001052,None,,,,,,,,,,,,,sub-098,001,2025-06-25_15h10.33.860,cued_mental_stim,2024.2.4,120.81292601824202,1,2,"['1', '2']",2025-06-25 15h10.56.758963 -0400,
2,backward,<- 4,stimuli/scissor_lure.png,2,17,17,0,2,1,2.4110246999189258,None,None,None,3,1.0812355000525713,None,None,,,0,17,17,57,313.5986796000507,,,,,,,,,,,,,,,,313.59143689996563,313.5986796000507,7.580011151731014e-05,313.8944109999575,313.8952585000079,313.9026983999647,315.88185460004024,315.898494000081,325.8776404999662,328.74379019998014,328.74379019998014,330.7358186999336,330.74425880005583,331.1572952000424,2,1,2.4110246999189258,None,331.15787260001525,331.16938830004074,331.16938830004074,331.16938830004074,332.25496380007826,None,None,3,1.0812355000525713,None,332.2550894001033,332.255105700111,None,,,,,,,,,,,,,sub-098,001,2025-06-25_15h10.33.860,cued_mental_stim,2024.2.4,120.81292601824202,1,2,"['1', '2']",2025-06-25 15h10.56.758963 -0400,
1,forward,1 ->,stimuli/face.png,1,18,18,0,1,1,2.3334782999008894,None,None,None,4,0.978364699985832,None,None,,,0,18,18,6,332.26124119991437,,,,,,,,,,,,,,,,332.25518759991974,332.26124119991437,8.220016025006771e-05,332.55662079993635,332.55756439990364,332.5653713999782,334.54870150005445,334.55656239995733,344.5358317999635,346.11895549995825,346.11895549995825,348.1105156999547,348.1192970999982,348.46160720009357,1,1,2.3334782999008894,None,348.46213790006004,348.47312769992277,348.47312769992277,348.47312769992277,349.45297949993983,None,None,4,0.978364699985832,None,349.4531372000929,349.45315439999104,None,,,,,,,,,,,,,sub-098,001,2025-06-25_15h10.33.860,cued_mental_stim,2024.2.4,120.81292601824202,1,2,"['1', '2']",2025-06-25 15h10.56.758963 -0400,
1,backward,<- 4,stimuli/new2.png,2,19,19,0,2,1,2.4377673999406397,None,None,None,2,0.8485416998155415,None,None,,,0,19,19,4,349.46143670007586,,,,,,,,,,,,,,,,349.4532339000143,349.46143670007586,7.880013436079025e-05,349.7571890000254,349.75813270010985,349.7652300999034,351.74397110007703,351.7609504999127,361.7398141999729,362.8935875000898,362.8935875000898,364.8824281000998,364.8884807000868,365.33477489999495,2,1,2.4377673999406397,None,365.33535140007734,365.3468073999975,365.3468073999975,365.3468073999975,366.19756540004164,None,None,2,0.8485416998155415,None,366.19767530006357,366.19769009994343,None,,,,,,,,,,,,,sub-098,001,2025-06-25_15h10.33.860,cued_mental_stim,2024.2.4,120.81292601824202,1,2,"['1', '2']",2025-06-25 15h10.56.758963 -0400,
1,forward,1 ->,stimuli/face.png,1,20,20,0,1,1,2.4458516999147832,None,None,None,4,1.0142686001490802,None,None,,,0,20,20,3,366.20051020011306,,,,,,,,,,,,,,,,366.1977609000169,366.20051020011306,7.399986498057842e-05,366.4973383001052,366.49823180004023,366.5052610998973,368.4939147999976,368.50208149990067,378.4811247000471,380.90910109994,380.90910109994,382.90197729994543,382.91877870005555,383.36254010000266,1,1,2.4458516999147832,None,383.36311969999224,383.3725992999971,383.3725992999971,383.3725992999971,384.39396549994126,None,None,4,1.0142686001490802,None,384.39410430006683,384.39411980006844,None,366.5052610998973,,,,,,,,,,,,sub-098,001,2025-06-25_15h10.33.860,cued_mental_stim,2024.2.4,120.81292601824202,1,2,"['1', '2']",2025-06-25 15h10.56.758963 -0400,
3,forward,1 ->,stimuli/face.png,1,21,21,0,1,1,2.4373186000157148,None,None,None,4,0.7628538999706507,None,None,,,0,21,21,74,384.4019067999907,,,,,,,,,,,,,,,,384.39419170003384,384.4019067999907,7.6299998909235e-05,384.6983107998967,384.70029959990643,384.70600189990364,386.68563290010206,386.7019996000454,396.67683360003866,397.80595559999347,397.80595559999347,399.80193349998444,399.8101101000793,400.2442526000086,1,1,2.4373186000157148,None,400.2447850999888,400.25592099991627,400.25592099991627,400.25592099991627,401.01995830005035,None,None,4,0.7628538999706507,None,401.0200648000464,401.02007990004495,None,,,,,,,,,,,,,sub-098,001,2025-06-25_15h10.33.860,cued_mental_stim,2024.2.4,120.81292601824202,1,2,"['1', '2']",2025-06-25 15h10.56.758963 -0400,
2,backward,<- 4,stimuli/scissor_lure.png,2,22,22,0,2,1,4.9738863001111895,None,None,None,2,0.8901581999380141,None,None,,,0,22,22,40,401.02691520005465,,,,,,,,,,,,,,,,401.0201564999297,401.02691520005465,7.759989239275455e-05,401.32774479989894,401.32871560007334,401.33526830002666,403.31460479996167,403.33118800004013,413.31413839990273,415.59761600010097,415.59761600010097,417.5892171000596,417.5974493001122,420.5736519000493,2,1,4.9738863001111895,None,420.5741852000356,420.58479449991137,420.58479449991137,420.58479449991137,421.48557769996114,None,None,2,0.8901581999380141,None,421.4857230000198,421.48573810001835,None,,,,,,,,,,,,,sub-098,001,2025-06-25_15h10.33.860,cued_mental_stim,2024.2.4,120.81292601824202,1,2,"['1', '2']",2025-06-25 15h10.56.758963 -0400,
1,forward,1 ->,stimuli/banane.png,1,23,23,0,1,1,2.2360044999513775,None,None,None,1,1.0451585999689996,None,None,,,0,23,23,15,421.49366239993833,,,,,,,,,,,,,,,,421.4858144999016,421.49366239993833,7.87999015301466e-05,421.78925719996914,421.7901914000977,421.7975902999751,423.7766330000013,423.7933900000062,433.7682064999826,435.44714289996773,435.44714289996773,437.43870120006613,437.4467899999581,437.6896401999984,1,1,2.2360044999513775,None,437.6902008999605,437.7015929999761,437.7015929999761,437.7015929999761,438.7522460001055,None,None,1,1.0451585999689996,None,438.7524089999497,438.7524260999635,None,,,,,,,,,,,,,sub-098,001,2025-06-25_15h10.33.860,cued_mental_stim,2024.2.4,120.81292601824202,1,2,"['1', '2']",2025-06-25 15h10.56.758963 -0400,
2,backward,<- 4,stimuli/new1.png,2,24,24,0,2,1,2.2820593998767436,None,None,None,1,0.23799529997631907,None,None,,,0,24,24,50,438.7595466999337,,,,,,,,,,,,,,,,438.7525114999153,438.7595466999337,8.570007048547268e-05,439.05623480002396,439.0582002000883,439.0643823000137,441.0476514000911,441.0558821000159,451.0429742000997,452.1846948999446,452.1846948999446,454.18056989996694,454.1890702000819,454.47286930005066,2,1,2.2820593998767436,None,454.47342790011317,454.48467730008997,454.48467730008997,454.48467730008997,454.73314850009046,None,None,1,0.23799529997631907,None,454.73340180004016,454.7334183000494,None,,,,,,,,,,,,,sub-098,001,2025-06-25_15h10.33.860,cued_mental_stim,2024.2.4,120.81292601824202,1,2,"['1', '2']",2025-06-25 15h10.56.758963 -0400,
2,backward,<- 4,stimuli/new3.png,2,25,25,0,2,1,2.294402200030163,None,None,None,3,0.08955249981954694,None,None,,,0,25,25,54,454.74322899989784,,,,,,,,,,,,,,,,454.73349860007875,454.74322899989784,8.120015263557434e-05,455.0349123000633,455.03714699996635,455.0429704999551,457.0260985000059,457.03454710007645,467.0179240000434,468.701066999929,468.701066999929,470.692530100001,470.70154429995455,470.9974541000556,2,1,2.294402200030163,None,470.99802400008775,471.00987730012275,471.00987730012275,471.00987730012275,471.11013919999823,None,None,3,0.08955249981954694,None,471.11028379993513,471.1102996999398,None,,,,,,,,,,,,,sub-098,001,2025-06-25_15h10.33.860,cued_mental_stim,2024.2.4,120.81292601824202,1,2,"['1', '2']",2025-06-25 15h10.56.758963 -0400,
3,backward,<- 4,stimuli/scissor_lure.png,2,26,26,0,2,1,2.236515900120139,None,None,None,3,0.9133156999014318,None,None,,,0,26,26,65,471.11778840003535,,,,,,,,,,,,,,,,471.1103751999326,471.11778840003535,7.539987564086914e-05,471.41415970004164,471.4150861001108,471.4221177001018,473.40741980005987,473.41387869999744,483.4053986999206,485.78310279990546,485.78310279990546,487.78020490007475,487.78838029992767,488.0220002999995,2,1,2.236515900120139,None,488.02256419998594,488.03424670011736,488.03424670011736,488.03424670011736,488.95588029990904,None,None,3,0.9133156999014318,None,488.9560277001001,488.9560422000941,None,,,,,,,,,,,,,sub-098,001,2025-06-25_15h10.33.860,cued_mental_stim,2024.2.4,120.81292601824202,1,2,"['1', '2']",2025-06-25 15h10.56.758963 -0400,
3,backward,<- 4,stimuli/new2.png,2,27,27,0,2,1,2.2454033999238163,None,None,None,3,0.24357259995304048,None,None,,,0,27,27,70,488.9634658000432,,,,,,,,,,,,,,,,488.956115799956,488.9634658000432,7.619988173246384e-05,489.25931040011346,489.2602325999178,489.2676752000116,491.25104960007593,491.25924860010855,501.24704389995895,503.4133367999457,503.4133367999457,505.4090279000811,505.4090279000811,505.6593812999781,2,1,2.2454033999238163,None,505.65995329990983,505.6716853999533,505.6716853999533,505.6716853999533,505.9181679999456,None,None,3,0.24357259995304048,None,505.918461299967,505.9184775000904,None,,,,,,,,,,,,,sub-098,001,2025-06-25_15h10.33.860,cued_mental_stim,2024.2.4,120.81292601824202,1,2,"['1', '2']",2025-06-25 15h10.56.758963 -0400,
2,backward,<- 4,stimuli/new3.png,2,28,28,0,2,1,2.472485800040886,None,None,None,2,0.6208103999961168,None,None,,,0,28,28,53,505.92560669989325,,,,,,,,,,,,,,,,505.918555600103,505.92560669989325,7.84001313149929e-05,506.2217073000502,506.2225995999761,506.22988669993356,508.2132377999369,508.2216517000925,518.2049976999406,521.163060599938,521.163060599938,523.1590239000507,523.1590239000507,523.6424509999342,2,1,2.472485800040886,None,523.6431919999886,523.6546811999287,523.6546811999287,523.6546811999287,524.2807354000397,None,None,2,0.6208103999961168,None,524.2808948000893,524.2809117001016,None,,,,,,,,,,,,,sub-098,001,2025-06-25_15h10.33.860,cued_mental_stim,2024.2.4,120.81292601824202,1,2,"['1', '2']",2025-06-25 15h10.56.758963 -0400,
3,forward,1 ->,stimuli/ciseau.png,1,29,29,0,1,1,2.286834000144154,None,None,None,4,0.1835539999883622,None,None,,,0,29,29,64,524.2882439999375,,,,,,,,,,,,,,,,524.2809937999118,524.2882439999375,8.210004307329655e-05,524.5842013000511,524.5861549999099,524.5922664999962,526.5758567000739,526.5838389000855,536.5670970000792,537.7003935999237,537.7003935999237,539.696249099914,539.696249099914,539.9924765001051,1,1,2.286834000144154,None,539.9930237000808,540.0046641998924,540.0046641998924,540.0046641998924,540.1887833001092,None,None,4,0.1835539999883622,None,540.1889551000204,540.1889714999124,None,,,,,,,,,,,,,sub-098,001,2025-06-25_15h10.33.860,cued_mental_stim,2024.2.4,120.81292601824202,1,2,"['1', '2']",2025-06-25 15h10.56.758963 -0400,
3,forward,1 ->,stimuli/banane.png,1,30,30,0,1,1,2.266174100106582,None,None,None,2,0.25445540016517043,None,None,,,0,30,30,67,540.1962490000296,,,,,,,,,,,,,,,,540.189043499995,540.1962490000296,7.219985127449036e-05,540.492239400046,540.4936404000036,540.5010047000833,542.4838539001066,542.4924264000729,552.4708531000651,554.5365569000132,554.5365569000132,556.52913359995,556.5377158999909,556.8091865000315,1,1,2.266174100106582,None,556.8098065999802,556.8214787999168,556.8214787999168,556.8214787999168,557.0886816999409,None,None,2,0.25445540016517043,None,557.0888171000406,557.0888308999129,None,,,,,,,,,,,,,sub-098,001,2025-06-25_15h10.33.860,cued_mental_stim,2024.2.4,120.81292601824202,1,2,"['1', '2']",2025-06-25 15h10.56.758963 -0400,
1,forward,1 ->,stimuli/zèbre.png,1,31,31,0,1,1,2.2555169998668134,None,None,None,3,0.2005362999625504,None,space,1.6277107999194413,None,0,31,31,28,557.0961440999527,,,,,,,,,,,,,,,,557.0889047000092,557.0961440999527,7.560010999441147e-05,557.3918218000326,557.3930734999012,557.40016379999,559.3874981000554,559.3992115999572,569.3833484000061,570.4917492000386,570.4917492000386,572.4837257999461,572.4918408000376,572.7506488000508,1,1,2.2555169998668134,None,572.7511779000051,572.7627244000323,572.7627244000323,572.7627244000323,572.9720113000367,None,None,3,0.2005362999625504,None,572.9767911999952,574.6133526000194,space,,572.9837116000708,572.9837116000708,1.6277107999194413,None,,,,,,,,sub-098,001,2025-06-25_15h10.33.860,cued_mental_stim,2024.2.4,120.81292601824202,1,2,"['1', '2']",2025-06-25 15h10.56.758963 -0400,
1,backward,<- 4,stimuli/new4.png,2,32,32,0,2,1,2.2522211000323296,None,None,None,2,0.39207500009797513,None,None,,,0,32,32,22,574.6207505001221,,,,,,,,,,,,,,,,574.6134659000672,574.6207505001221,9.889993816614151e-05,574.9170246999711,574.9179630998988,574.9247439999599,576.9083143000025,576.9168308998924,586.8960539000109,588.606873499928,588.606873499928,590.6040692001116,590.6124557999428,590.8628823999316,2,1,2.2522211000323296,None,590.8634591000155,590.8749728999101,590.8749728999101,590.8749728999101,591.2755416000728,None,None,2,0.39207500009797513,None,591.2759867000859,591.2760065000039,None,,,,,,,,,,,,,sub-098,001,2025-06-25_15h10.33.860,cued_mental_stim,2024.2.4,120.81292601824202,1,2,"['1', '2']",2025-06-25 15h10.56.758963 -0400,
3,backward,<- 4,stimuli/new2.png,2,33,33,0,2,1,2.209916800027713,None,None,None,2,0.15558809996582568,None,None,,,0,33,33,82,591.2832307000645,,,,,,,,,,,,,,,,591.2760834000073,591.2832307000645,7.599988020956516e-05,591.5787482999731,591.5800383999012,591.5873424999882,593.5707318000495,593.5791307000909,603.5619423999451,604.9776866999455,604.9776866999455,606.9750383000355,606.9832238999661,607.1959347999655,2,1,2.209916800027713,None,607.1965000999626,607.2080339998938,607.2080339998938,607.2080339998938,607.3670006000903,None,None,2,0.15558809996582568,None,607.367119200062,607.3671353000682,None,,,,,,,,,,,,,sub-098,001,2025-06-25_15h10.33.860,cued_mental_stim,2024.2.4,120.81292601824202,1,2,"['1', '2']",2025-06-25 15h10.56.758963 -0400,
1,backward,<- 4,stimuli/face_lure.png,2,34,34,0,2,1,2.42305069998838,None,None,None,2,0.31320639979094267,None,None,,,0,34,34,21,607.3746849000454,,,,,,,,,,,,,,,,607.3672102999408,607.3746849000454,7.54999928176403e-05,607.6708325999789,607.6718029000331,607.6789444999304,609.6618596999906,609.665985000087,619.6539708001073,621.9158693999052,621.9158693999052,623.9123825998977,623.9206427999306,624.3414515000768,2,1,2.42305069998838,None,624.3419884999748,624.3537194998935,624.3537194998935,624.3537194998935,624.6781480999198,None,None,2,0.31320639979094267,None,624.6784407000523,624.6784604999702,None,,,,,,,,,,,,,sub-098,001,2025-06-25_15h10.33.860,cued_mental_stim,2024.2.4,120.81292601824202,1,2,"['1', '2']",2025-06-25 15h10.56.758963 -0400,
1,forward,1 ->,stimuli/banane.png,1,35,35,0,1,1,2.2212539000902325,None,None,None,2,0.25613339990377426,None,None,,,0,35,35,11,624.6871712000575,,,,,,,,,,,,,,,,624.6785446000285,624.6871712000575,8.340016938745975e-05,624.9828528000508,624.9838312999345,624.9916344000958,626.9703750000335,626.9873355000746,636.9665145999752,638.16614570003,638.16614570003,640.1577512999065,640.1664635001216,640.3916845999192,1,1,2.2212539000902325,None,640.3922335000243,640.4038539999165,640.4038539999165,640.4038539999165,640.6669791999739,None,None,2,0.25613339990377426,None,640.667134999996,640.6671523000114,None,,,,,,,,,,,,,sub-098,001,2025-06-25_15h10.33.860,cued_mental_stim,2024.2.4,120.81292601824202,1,2,"['1', '2']",2025-06-25 15h10.56.758963 -0400,
3,forward,1 ->,stimuli/zèbre.png,1,36,36,0,1,1,2.261972500011325,None,None,None,2,0.5797168998979032,None,None,,,0,36,36,86,640.6745442000683,,,,,,,,,,,,,,,,640.6672408999875,640.6745442000683,8.859997615218163e-05,640.9702165001072,640.971138099907,640.9788556001149,642.9661107000429,642.9741438000929,652.9577224999666,654.0368627000134,654.0368627000134,656.028150399914,656.0363716001157,656.2995484999847,1,1,2.261972500011325,None,656.3002118000295,656.3114543000702,656.3114543000702,656.3114543000702,656.896415800089,None,None,2,0.5797168998979032,None,656.8965598999057,656.8965751000214,None,,,,,,,,,,,,,sub-098,001,2025-06-25_15h10.33.860,cued_mental_stim,2024.2.4,120.81292601824202,1,2,"['1', '2']",2025-06-25 15h10.56.758963 -0400,
2,forward,1 ->,stimuli/banane.png,1,37,37,0,1,1,2.885671899886802,None,None,None,3,0.7333839999046177,None,None,,,0,37,37,59,656.9055504999124,,,,,,,,,,,,,,,,656.8966508999001,656.9055504999124,7.690000347793102e-05,657.1994763999246,657.2003899998963,657.2076449000742,659.1950791000854,659.2033337000757,669.1909088001121,671.7655072999187,671.7655072999187,673.7616393999197,673.7703468000982,674.6577538999263,1,1,2.885671899886802,None,674.6583167999052,674.6702966999728,674.6702966999728,674.6702966999728,675.4122707999777,None,None,3,0.7333839999046177,None,675.4124565999955,675.4124735998921,None,,,,,,,,,,,,,sub-098,001,2025-06-25_15h10.33.860,cued_mental_stim,2024.2.4,120.81292601824202,1,2,"['1', '2']",2025-06-25 15h10.56.758963 -0400,
2,forward,1 ->,stimuli/ciseau.png,1,38,38,0,1,1,2.234729499788955,None,None,None,4,0.20829360000789165,None,None,,,0,38,38,46,675.4203669000417,,,,,,,,,,,,,,,,675.4125518000219,675.4203669000417,7.850001566112041e-05,675.7154536999296,675.7178720999509,675.7247723999899,677.7070031000767,677.7237027001102,687.7031016000547,690.3602167000063,690.3602167000063,692.3531379001215,692.3696538999211,692.5989775001071,1,1,2.234729499788955,None,692.5995300000068,692.6116871000268,692.6116871000268,692.6116871000268,692.828217699891,None,None,4,0.20829360000789165,None,692.8283593999222,692.8283742000349,None,,,,,,,,,,,,,sub-098,001,2025-06-25_15h10.33.860,cued_mental_stim,2024.2.4,120.81292601824202,1,2,"['1', '2']",2025-06-25 15h10.56.758963 -0400,
3,forward,1 ->,stimuli/banane.png,1,39,39,0,1,1,2.3729405000340194,None,None,None,4,0.6674627000465989,None,None,,,0,39,39,89,692.8363866000436,,,,,,,,,,,,,,,,692.8284531000536,692.8363866000436,8.059991523623466e-05,693.1369024000596,693.1390446000732,693.1454437999055,695.1242778000887,695.1409412000794,705.1196586999577,707.7266957000829,707.7266957000829,709.7238286000211,709.7317596001085,710.107117400039,1,1,2.3729405000340194,None,710.1076734000817,710.1198372999206,710.1198372999206,710.1198372999206,710.7910559999291,None,None,4,0.6674627000465989,None,710.7912105000578,710.7912278000731,None,,,,,,,,,,,,,sub-098,001,2025-06-25_15h10.33.860,cued_mental_stim,2024.2.4,120.81292601824202,1,2,"['1', '2']",2025-06-25 15h10.56.758963 -0400,
3,backward,<- 4,stimuli/new2.png,2,40,40,0,2,1,2.3726145999971777,None,None,None,2,0.5665029000956565,None,None,,,0,40,40,73,710.7989841001108,,,,,,,,,,,,,,,,710.7913061000872,710.7989841001108,7.870001718401909e-05,711.0947251999751,711.0955872999039,711.1028847000562,713.090368400095,713.098644200014,723.0839617000893,724.990204700036,724.990204700036,726.9804730999749,726.9848619000986,727.3643404999748,2,1,2.3726145999971777,None,727.3649182999507,727.3722926001064,727.3722926001064,727.3722926001064,727.9398956000805,None,None,2,0.5665029000956565,None,727.9400373001117,727.9400536001194,None,,,,,,,,,,,,,sub-098,001,2025-06-25_15h10.33.860,cued_mental_stim,2024.2.4,120.81292601824202,1,2,"['1', '2']",2025-06-25 15h10.56.758963 -0400,
2,backward,<- 4,stimuli/banana_lure.png,2,41,41,0,2,1,3.1579758001025766,None,None,None,2,0.7097164001315832,None,None,,,0,41,41,36,727.9478978998959,,,,,,,,,,,,,,,,727.9401366999373,727.9478978998959,8.399994112551212e-05,728.2450019998942,728.2459003000986,728.2526857999619,730.2360346999485,730.2442882000469,740.2280192999169,741.5025607000571,741.5025607000571,743.4943049000576,743.5025074000005,744.6655852999538,2,1,3.1579758001025766,None,744.6661608000286,744.6774641000666,744.6774641000666,744.6774641000666,745.3908514000941,None,None,2,0.7097164001315832,None,745.3910670999903,745.3910807000939,None,,,,,,,,,,,,,sub-098,001,2025-06-25_15h10.33.860,cued_mental_stim,2024.2.4,120.81292601824202,1,2,"['1', '2']",2025-06-25 15h10.56.758963 -0400,
1,forward,1 ->,stimuli/face.png,1,42,42,0,1,1,2.2270368000026792,None,None,None,4,0.18201500014401972,None,None,,,0,42,42,14,745.3983002000023,,,,,,,,,,,,,,,,745.3911520999391,745.3983002000023,7.439986802637577e-05,745.6943361000158,745.695269000018,745.7030066000298,747.6859846999869,747.6944448999129,757.6816142001189,758.7357886000536,758.7357886000536,760.7274066999089,760.7361184000038,760.9699792999309,1,1,2.2270368000026792,None,760.9705650999676,760.9818009999581,760.9818009999581,760.9818009999581,761.1659329000395,None,None,4,0.18201500014401972,None,761.1660649001133,761.166078499984,None,,,,,,,,,,,,,sub-098,001,2025-06-25_15h10.33.860,cued_mental_stim,2024.2.4,120.81292601824202,1,2,"['1', '2']",2025-06-25 15h10.56.758963 -0400,
3,backward,<- 4,stimuli/scissor_lure.png,2,43,43,0,2,1,2.2306399000808597,None,None,None,3,0.07619219995103776,None,None,,,0,43,43,77,761.1730446999427,,,,,,,,,,,,,,,,761.1661515000742,761.1730446999427,7.599988020956516e-05,761.470470600063,761.4713449000847,761.4776190998964,763.4606252999511,763.4693754999898,773.4523320998996,775.5801448000129,775.5801448000129,777.5779208999593,777.5857239000034,777.8117128000595,2,1,2.2306399000808597,None,777.8122872998938,777.8229783999268,777.8229783999268,777.8229783999268,777.9073719000444,None,None,3,0.07619219995103776,None,777.9076592999045,777.9076745999046,None,,,,,,,,,,,,,sub-098,001,2025-06-25_15h10.33.860,cued_mental_stim,2024.2.4,120.81292601824202,1,2,"['1', '2']",2025-06-25 15h10.56.758963 -0400,
1,forward,1 ->,stimuli/ciseau.png,1,44,44,0,1,1,2.359209200134501,None,None,None,3,0.8644490998703986,None,None,,,0,44,44,19,777.9150096999947,,,,,,,,,,,,,,,,777.9077508999035,777.9150096999947,7.810001261532307e-05,778.2106474000029,778.2115386999212,778.2191473999992,780.2023255000822,780.2104464999866,790.1937915000599,791.24362069997,791.24362069997,793.2359702000394,793.2435647998936,793.6065426999703,1,1,2.359209200134501,None,793.6071142000146,793.6187994999345,793.6187994999345,793.6187994999345,794.4900819999166,None,None,3,0.8644490998703986,None,794.4903537000064,794.4903728999197,None,,,,,,,,,,,,,sub-098,001,2025-06-25_15h10.33.860,cued_mental_stim,2024.2.4,120.81292601824202,1,2,"['1', '2']",2025-06-25 15h10.56.758963 -0400,
3,backward,<- 4,stimuli/face_lure.png,2,45,45,0,2,1,2.3055172997992486,None,None,None,4,0.44424920016899705,None,None,,,0,45,45,72,794.4976663000416,,,,,,,,,,,,,,,,794.4904595001135,794.4976663000416,8.539995178580284e-05,794.7938123999629,794.7947774999775,794.8020711999852,796.785339999944,796.7936730000656,806.780921400059,808.6974679001141,808.6974679001141,810.6893563000485,810.6978517000098,811.0111682999413,2,1,2.3055172997992486,None,811.0117301000282,811.0227254999336,811.0227254999336,811.0227254999336,811.4734815000556,None,None,4,0.44424920016899705,None,811.4736355000641,811.4736526999623,None,,,,,,,,,,,,,sub-098,001,2025-06-25_15h10.33.860,cued_mental_stim,2024.2.4,120.81292601824202,1,2,"['1', '2']",2025-06-25 15h10.56.758963 -0400,
2,backward,<- 4,stimuli/scissor_lure.png,2,46,46,0,2,1,2.480722100008279,None,None,None,2,0.6889932998456061,None,None,,,0,46,46,33,811.4810556999873,,,,,,,,,,,,,,,,811.4737303000875,811.4810556999873,7.700012065470219e-05,811.7769782000687,811.777904599905,811.7851829000283,813.7642284999602,813.7809516000561,823.7601624000818,826.5226362000685,826.5226362000685,828.5188060998917,828.5270205000415,829.0066740999464,2,1,2.480722100008279,None,829.0072739000898,829.0183610001113,829.0183610001113,829.0183610001113,829.7148259000387,None,None,2,0.6889932998456061,None,829.7150813001208,829.7150975998957,None,,,,,,,,,,,,,sub-098,001,2025-06-25_15h10.33.860,cued_mental_stim,2024.2.4,120.81292601824202,1,2,"['1', '2']",2025-06-25 15h10.56.758963 -0400,
2,forward,1 ->,stimuli/zèbre.png,1,47,47,0,1,1,2.2379474001936615,None,None,None,3,0.6819855999201536,None,None,,,0,47,47,35,829.7226505998988,,,,,,,,,,,,,,,,829.7151758000255,829.7226505998988,7.880013436079025e-05,830.0190250999294,830.0211881999858,830.030939700082,832.0059732000809,832.0229412000626,841.994217599975,844.9336250000633,844.9336250000633,846.9309650999494,846.939403800061,847.1723839000333,1,1,2.2379474001936615,None,847.1730164000764,847.1851292999927,847.1851292999927,847.1851292999927,847.8773600999266,None,None,3,0.6819855999201536,None,847.8775152000599,847.8775317000691,None,,,,,,,,,,,,,sub-098,001,2025-06-25_15h10.33.860,cued_mental_stim,2024.2.4,120.81292601824202,1,2,"['1', '2']",2025-06-25 15h10.56.758963 -0400,
1,forward,1 ->,stimuli/ciseau.png,1,48,48,0,1,1,2.2262181998230517,None,None,None,3,0.5973086999729276,None,None,,,0,48,48,7,847.8848439001013,,,,,,,,,,,,,,,,847.877609499963,847.8848439001013,7.84001313149929e-05,848.1809712999966,848.1819283999503,848.1895963998977,850.1764704999514,850.1849227999337,860.168481899891,861.184698899975,861.184698899975,863.1813711998984,863.1813711998984,863.4190205999184,1,1,2.2262181998230517,None,863.4195681998972,863.4306129999459,863.4306129999459,863.4306129999459,864.0307503000367,None,None,3,0.5973086999729276,None,864.0309431999922,864.030960700009,None,,,,,,,,,,,,,sub-098,001,2025-06-25_15h10.33.860,cued_mental_stim,2024.2.4,120.81292601824202,1,2,"['1', '2']",2025-06-25 15h10.56.758963 -0400,
3,backward,<- 4,stimuli/new4.png,2,49,49,0,2,1,2.32943160017021,None,None,None,2,0.629260600078851,None,None,,,0,49,49,78,864.0387043000665,,,,,,,,,,,,,,,,864.031041600043,864.0387043000665,8.029979653656483e-05,864.334675299935,864.3356045999099,864.343044300098,866.3266457000282,866.3346700000111,876.3178032999858,877.6262036999688,877.6262036999688,879.6221127999015,879.6324440001044,879.9600996000227,2,1,2.32943160017021,None,879.9606993999332,879.9739127000794,879.9739127000794,879.9739127000794,880.610416200012,None,None,2,0.629260600078851,None,880.6105977999978,880.6106114999857,None,,,,,,,,,,,,,sub-098,001,2025-06-25_15h10.33.860,cued_mental_stim,2024.2.4,120.81292601824202,1,2,"['1', '2']",2025-06-25 15h10.56.758963 -0400,
1,forward,1 ->,stimuli/face.png,1,50,50,0,1,1,2.2861061000730842,None,None,None,3,0.7063157998491079,None,None,,,0,50,50,1,880.6177185999695,,,,,,,,,,,,,,,,880.6106841999572,880.6177185999695,7.500010542571545e-05,880.9141796999611,880.9163907999173,880.9260428999551,882.9052748999093,882.9221030999906,892.9010101999156,895.3010404000524,895.3010404000524,897.2965669000987,897.2965669000987,897.589177899994,1,1,2.2861061000730842,None,897.589838200016,897.6010062000714,897.6010062000714,897.6010062000714,898.3099414999597,None,None,3,0.7063157998491079,None,898.3101121999789,898.3101286999881,None,,,,,,,,,,,,,sub-098,001,2025-06-25_15h10.33.860,cued_mental_stim,2024.2.4,120.81292601824202,1,2,"['1', '2']",2025-06-25 15h10.56.758963 -0400,
3,backward,<- 4,stimuli/banana_lure.png,2,51,51,0,2,1,2.376016699941829,None,None,None,2,0.527132699964568,None,None,,,0,51,51,76,898.3177809000481,,,,,,,,,,,,,,,,898.3102090000175,898.3177809000481,8.099991828203201e-05,898.6137494998984,898.6159226000309,898.6221777000464,900.6009891000576,900.6175383999944,910.5970238000154,913.07547660009,913.07547660009,915.0716474999208,915.0716474999208,915.4555214999709,2,1,2.376016699941829,None,915.4561254999135,915.4678992999252,915.4678992999252,915.4678992999252,916.0056185000576,None,None,2,0.527132699964568,None,916.005787299946,916.0058045999613,None,,,,,,,,,,,,,sub-098,001,2025-06-25_15h10.33.860,cued_mental_stim,2024.2.4,120.81292601824202,1,2,"['1', '2']",2025-06-25 15h10.56.758963 -0400,
1,forward,1 ->,stimuli/banane.png,1,52,52,0,1,1,2.274366900091991,None,None,None,1,0.26306600007228553,None,None,,,0,52,52,29,916.0134312999435,,,,,,,,,,,,,,,,916.0058856001124,916.0134312999435,8.190004155039787e-05,916.3097506999038,916.3121503998991,916.3217058000155,918.2969327999745,918.3133106001187,928.2884818001185,929.7295945000369,929.7295945000369,931.7215567999519,931.7299295000266,932.0090077999048,1,1,2.274366900091991,None,932.0095965999644,932.0209035000298,932.0209035000298,932.0209035000298,932.2934820998926,None,None,1,0.26306600007228553,None,932.2937046999577,932.2937239999883,None,,,,,,,,,,,,,sub-098,001,2025-06-25_15h10.33.860,cued_mental_stim,2024.2.4,120.81292601824202,1,2,"['1', '2']",2025-06-25 15h10.56.758963 -0400,
2,backward,<- 4,stimuli/new3.png,2,53,53,0,2,1,2.248612000141293,None,None,None,2,0.308740499895066,None,None,,,0,53,53,48,932.3007932999171,,,,,,,,,,,,,,,,932.2938103000633,932.3007932999171,8.410005830228329e-05,932.596899199998,932.5983531000093,932.6048773000948,934.5881602000445,934.5965241000522,944.5797033999115,947.4425556999631,947.4425556999631,949.4380516998935,949.4467440999579,949.6969272999559,2,1,2.248612000141293,None,949.6974941000808,949.7104273000732,949.7104273000732,949.7104273000732,950.0298627000302,None,None,2,0.308740499895066,None,950.0300229000859,950.0300404999871,None,,,,,,,,,,,,,sub-098,001,2025-06-25_15h10.33.860,cued_mental_stim,2024.2.4,120.81292601824202,1,2,"['1', '2']",2025-06-25 15h10.56.758963 -0400,
3,backward,<- 4,stimuli/zebra_lure.png,2,54,54,0,2,1,2.5113486000336707,None,None,None,2,0.5865629999898374,None,None,,,0,54,54,91,950.0377950000111,,,,,,,,,,,,,,,,950.0301187001169,950.0377950000111,7.870001718401909e-05,950.330077300081,950.3322187000886,950.3384195999242,952.3255606000312,952.3337687000167,962.3168887000065,963.9878670999315,963.9878670999315,965.9839592999779,965.9839592999779,966.5010621000547,2,1,2.5113486000336707,None,966.5017192000523,966.512620100053,966.512620100053,966.512620100053,967.1046241000295,None,None,2,0.5865629999898374,None,967.1049067000858,967.1049252001103,None,950.3384195999242,,,,,,,,,,,,sub-098,001,2025-06-25_15h10.33.860,cued_mental_stim,2024.2.4,120.81292601824202,1,2,"['1', '2']",2025-06-25 15h10.56.758963 -0400,
3,backward,<- 4,stimuli/zebra_lure.png,2,55,55,0,2,1,2.207578199915588,None,None,None,3,0.2430451000109315,None,None,,,0,55,55,92,967.1165869999677,,,,,,,,,,,,,,,,967.1050072999205,967.1165869999677,8.33999365568161e-05,967.4086053001229,967.4094714000821,967.4172773000319,969.3980684000999,969.4126335000619,979.3965185999405,980.7960644999985,980.7960644999985,982.7875999000389,982.7961377000902,983.0050085000694,2,1,2.207578199915588,None,983.0055655001197,983.0166545999236,983.0166545999236,983.0166545999236,983.2633464999963,None,None,3,0.2430451000109315,None,983.2635121000931,983.2635294001084,None,,,,,,,,,,,,,sub-098,001,2025-06-25_15h10.33.860,cued_mental_stim,2024.2.4,120.81292601824202,1,2,"['1', '2']",2025-06-25 15h10.56.758963 -0400,
2,forward,1 ->,stimuli/ciseau.png,1,56,56,0,1,1,2.3327728000003844,None,None,None,3,0.6470145999919623,None,None,,,0,56,56,42,983.2711048000492,,,,,,,,,,,,,,,,983.2636017000768,983.2711048000492,8.410005830228329e-05,983.5710064999294,983.5719240000471,983.5792471999303,985.5543651999906,985.5710897999816,995.5461311999243,997.3663540999405,997.3663540999405,999.3580014999025,999.3662578999065,999.704384499928,1,1,2.3327728000003844,None,999.7049392999616,999.716621800093,999.716621800093,999.716621800093,1000.3757066999096,None,None,3,0.6470145999919623,None,1000.3759117000736,1000.3759280999657,None,,,,,,,,,,,,,sub-098,001,2025-06-25_15h10.33.860,cued_mental_stim,2024.2.4,120.81292601824202,1,2,"['1', '2']",2025-06-25 15h10.56.758963 -0400,
3,backward,<- 4,stimuli/banana_lure.png,2,57,57,0,2,1,2.229986400110647,None,None,None,3,0.15809540008194745,None,None,,,0,57,57,85,1000.3833566000685,,,,,,,,,,,,,,,,1000.376007599989,1000.3833566000685,7.999991066753864e-05,1000.6794002999086,1000.6812340000179,1000.688040799927,1002.6710854999255,1002.6792462000158,1012.6627841999289,1015.3819273000117,1015.3819273000117,1017.3788560999092,1017.3872344999108,1017.6169215999544,2,1,2.229986400110647,None,1017.6174790000077,1017.6287740000989,1017.6287740000989,1017.6287740000989,1017.7918092999607,None,None,3,0.15809540008194745,None,1017.79201929993,1017.7920371000655,None,,,,,,,,,,,,,sub-098,001,2025-06-25_15h10.33.860,cued_mental_stim,2024.2.4,120.81292601824202,1,2,"['1', '2']",2025-06-25 15h10.56.758963 -0400,
2,forward,1 ->,stimuli/face.png,1,58,58,0,1,1,2.4250037998426706,None,None,None,2,0.71528339991346,None,None,,,0,58,58,49,1017.8001945000142,,,,,,,,,,,,,,,,1017.7921186999884,1017.8001945000142,8.139992132782936e-05,1018.0953152000438,1018.0966064999811,1018.1041027999017,1020.0874469000846,1020.0952200000174,1030.0787925000768,1033.0747005001176,1033.0747005001176,1035.0663342000917,1035.074591099983,1035.5002301000059,1,1,2.4250037998426706,None,1035.5008837999776,1035.5124133999925,1035.5124133999925,1035.5124133999925,1036.2372526000254,None,None,2,0.71528339991346,None,1036.2374122000765,1036.2374291999731,None,,,,,,,,,,,,,sub-098,001,2025-06-25_15h10.33.860,cued_mental_stim,2024.2.4,120.81292601824202,1,2,"['1', '2']",2025-06-25 15h10.56.758963 -0400,
1,backward,<- 4,stimuli/zebra_lure.png,2,59,59,0,2,1,2.4378142999485135,None,None,None,2,1.3877898000646383,None,None,,,0,59,59,8,1036.2454977000598,,,,,,,,,,,,,,,,1036.2375076001044,1036.2454977000598,7.899990305304527e-05,1036.541652499931,1036.542569000041,1036.55054560001,1038.5286441000644,1038.545484900009,1048.5204024999402,1050.3335172000807,1050.3335172000807,1052.3287746999413,1052.3367065000348,1052.7794282000978,2,1,2.4378142999485135,None,1052.7800088999793,1052.791044099955,1052.791044099955,1052.791044099955,1054.1870377000887,None,None,2,1.3877898000646383,None,1054.1871813999023,1054.1871982999146,None,,,,,,,,,,,,,sub-098,001,2025-06-25_15h10.33.860,cued_mental_stim,2024.2.4,120.81292601824202,1,2,"['1', '2']",2025-06-25 15h10.56.758963 -0400,
2,backward,<- 4,stimuli/face_lure.png,2,60,60,0,2,1,2.33654380007647,None,None,None,2,0.8688815999776125,None,None,,,0,60,60,45,1054.1948746000417,,,,,,,,,,,,,,,,1054.1872785000596,1054.1948746000417,8.119991980493069e-05,1054.4916550000198,1054.4940074000042,1054.5043750000186,1056.4827227001078,1056.49923820002,1066.4745930999052,1069.3230594999623,1069.3230594999623,1071.3159457000438,1071.3326389000285,1071.665871599922,2,1,2.33654380007647,None,1071.666429300094,1071.6787324000616,1071.6787324000616,1071.6787324000616,1072.5539846001193,None,None,2,0.8688815999776125,None,1072.5541360999923,1072.554150100099,None,,,,,,,,,,,,,sub-098,001,2025-06-25_15h10.33.860,cued_mental_stim,2024.2.4,120.81292601824202,1,2,"['1', '2']",2025-06-25 15h10.56.758963 -0400,
2,forward,1 ->,stimuli/face.png,1,61,61,0,1,1,2.327462499961257,None,None,None,1,0.25360949989408255,None,None,,,0,61,61,39,1072.561660300009,,,,,,,,,,,,,,,,1072.5542214000598,1072.561660300009,7.369997911155224e-05,1072.8579828001093,1072.8600633000024,1072.8658292000182,1074.8493413999677,1074.8574844999239,1084.840377500048,1086.660441200016,1086.660441200016,1088.6478407999966,1088.6603536999319,1088.9899168000557,1,1,2.327462499961257,None,1088.9904628999066,1088.9978469000198,1088.9978469000198,1088.9978469000198,1089.2570591999684,None,None,1,0.25360949989408255,None,1089.2572137999814,1089.2572304999921,None,,,,,,,,,,,,,sub-098,001,2025-06-25_15h10.33.860,cued_mental_stim,2024.2.4,120.81292601824202,1,2,"['1', '2']",2025-06-25 15h10.56.758963 -0400,
2,backward,<- 4,stimuli/zebra_lure.png,2,62,62,0,2,1,2.285953199956566,None,None,None,2,0.25978370010852814,None,None,,,0,62,62,41,1089.2605413000565,,,,,,,,,,,,,,,,1089.257310200017,1089.2605413000565,8.060014806687832e-05,1089.557016900042,1089.5584233999252,1089.5648413000163,1091.5477986000478,1091.5520093999803,1101.5404990001116,1104.1178540000692,1104.1178540000692,1106.1114916999359,1106.1114916999359,1106.4122152999043,2,1,2.285953199956566,None,1106.4127905000933,1106.4239674001,1106.4239674001,1106.4239674001,1106.6912624000106,None,None,2,0.25978370010852814,None,1106.6914035999216,1106.691420899937,None,1089.5648413000163,,,,,,,,,,,,sub-098,001,2025-06-25_15h10.33.860,cued_mental_stim,2024.2.4,120.81292601824202,1,2,"['1', '2']",2025-06-25 15h10.56.758963 -0400,
1,forward,1 ->,stimuli/ciseau.png,1,63,63,0,1,1,2.388065999839455,None,None,None,2,1.251191799994558,None,space,6.799459800124168,None,0,63,63,25,1106.6991244999226,,,,,,,,,,,,,,,,1106.6914985000622,1106.6991244999226,7.989979349076748e-05,1106.9950874000788,1106.9959986000322,1107.0029583000578,1108.986345200101,1108.9947899999097,1118.9822166999802,1120.7446765999775,1120.7446765999775,1122.7402073999401,1122.7491198000498,1123.1406376999803,1,1,2.388065999839455,None,1123.1412051999941,1123.153063799953,1123.153063799953,1123.153063799953,1124.4165664000902,None,None,2,1.251191799994558,None,1124.418629599968,1131.2283179999795,space,,1124.4281804000493,1124.4281804000493,6.799459800124168,None,,,,,,,,sub-098,001,2025-06-25_15h10.33.860,cued_mental_stim,2024.2.4,120.81292601824202,1,2,"['1', '2']",2025-06-25 15h10.56.758963 -0400,
3,forward,1 ->,stimuli/ciseau.png,1,64,64,0,1,1,2.2330335997976363,None,None,None,3,0.16353629995137453,None,None,,,0,64,64,90,1131.2363036999013,,,,,,,,,,,,,,,,1131.228422800079,1131.2363036999013,9.240000508725643e-05,1131.5320918001235,1131.5342856000643,1131.5448549001012,1133.523967599962,1133.5403634000104,1143.5151472999714,1145.0818723998964,1145.0818723998964,1147.073346799938,1147.0821382000577,1147.3155451999046,1,1,2.2330335997976363,None,1147.3161398998927,1147.3284005001187,1147.3284005001187,1147.3284005001187,1147.4995872001164,None,None,3,0.16353629995137453,None,1147.5000475000124,1147.5000642000232,None,,,,,,,,,,,,,sub-098,001,2025-06-25_15h10.33.860,cued_mental_stim,2024.2.4,120.81292601824202,1,2,"['1', '2']",2025-06-25 15h10.56.758963 -0400,
2,forward,1 ->,stimuli/face.png,1,65,65,0,1,1,2.2104452999774367,None,None,None,3,0.07358630001544952,None,None,,,0,65,65,61,1147.5112016000785,,,,,,,,,,,,,,,,1147.5001433999278,1147.5112016000785,8.109980262815952e-05,1147.8025611001067,1147.803500100039,1147.8109774000477,1149.7987838999834,1149.8070414999966,1159.7904310000595,1161.665085799992,1161.665085799992,1163.6607715000864,1163.6695775000844,1163.8779261000454,1,1,2.2104452999774367,None,1163.8784719998948,1163.8899419000372,1163.8899419000372,1163.8899419000372,1163.96586570004,None,None,3,0.07358630001544952,None,1163.9659959001,1163.966009200085,None,,,,,,,,,,,,,sub-098,001,2025-06-25_15h10.33.860,cued_mental_stim,2024.2.4,120.81292601824202,1,2,"['1', '2']",2025-06-25 15h10.56.758963 -0400,
2,forward,1 ->,stimuli/zèbre.png,1,66,66,0,1,1,2.2320304999593645,None,None,None,4,0.14629200007766485,None,None,,,0,66,66,51,1163.9732810000423,,,,,,,,,,,,,,,,1163.9660791000351,1163.9732810000423,7.230020128190517e-05,1164.2690403999295,1164.2698923998978,1164.2775308000855,1166.26111089997,1166.2695432999171,1176.256640000036,1177.802791299997,1177.802791299997,1179.7940954000223,1179.8023415999487,1180.0363310000394,1,1,2.2320304999593645,None,1180.036938100122,1180.0485187000595,1180.0485187000595,1180.0485187000595,1180.1992854999844,None,None,4,0.14629200007766485,None,1180.1995194000192,1180.1995359999128,None,,,,,,,,,,,,,sub-098,001,2025-06-25_15h10.33.860,cued_mental_stim,2024.2.4,120.81292601824202,1,2,"['1', '2']",2025-06-25 15h10.56.758963 -0400,
3,backward,<- 4,stimuli/new1.png,2,67,67,0,2,1,2.601922799833119,None,None,None,2,1.0176602001301944,None,None,,,0,67,67,83,1180.20678950008,,,,,,,,,,,,,,,,1180.1996132999193,1180.20678950008,7.71998893469572e-05,1180.5027986001223,1180.5046999000479,1180.5107688000426,1182.4901419999078,1182.5064858999103,1192.4817339999136,1194.0732450000942,1194.0732450000942,1196.0650863999035,1196.0730012999848,1196.6780014999676,2,1,2.601922799833119,None,1196.6785669999663,1196.6900297000539,1196.6900297000539,1196.6900297000539,1197.7112426001113,None,None,2,1.0176602001301944,None,1197.7114031999372,1197.7114206000697,None,,,,,,,,,,,,,sub-098,001,2025-06-25_15h10.33.860,cued_mental_stim,2024.2.4,120.81292601824202,1,2,"['1', '2']",2025-06-25 15h10.56.758963 -0400,
3,forward,1 ->,stimuli/banane.png,1,68,68,0,1,1,2.211384699912742,None,None,None,2,1.287537100026384,None,None,,,0,68,68,84,1197.7191512000281,,,,,,,,,,,,,,,,1197.7115056999028,1197.7191512000281,8.559995330870152e-05,1198.0147543000057,1198.0165989000816,1198.0235476000234,1200.0020725999493,1200.0189580000006,1209.9936887999065,1211.3038510000333,1211.3038510000333,1213.297805499984,1213.297805499984,1213.5230823999736,1,1,2.211384699912742,None,1213.523981400067,1213.5396694999654,1213.5396694999654,1213.5396694999654,1214.835926400032,None,None,2,1.287537100026384,None,1214.8361535998993,1214.8361672000028,None,,,,,,,,,,,,,sub-098,001,2025-06-25_15h10.33.860,cued_mental_stim,2024.2.4,120.81292601824202,1,2,"['1', '2']",2025-06-25 15h10.56.758963 -0400,
2,forward,1 ->,stimuli/face.png,1,69,69,0,1,1,2.222111999988556,None,None,None,4,0.1124418000690639,None,None,,,0,69,69,38,1214.843593900092,,,,,,,,,,,,,,,,1214.836240200093,1214.843593900092,7.589999586343765e-05,1215.1397305000573,1215.1415927999187,1215.1487525000703,1217.1311929000076,1217.1394392000511,1227.1269670000765,1229.989405500004,1229.989405500004,1231.985093299998,1231.993885899894,1232.2147429001052,1,1,2.222111999988556,None,1232.2152784001082,1232.2270470999647,1232.2270470999647,1232.2270470999647,1232.3524243999273,None,None,4,0.1124418000690639,None,1232.352655600058,1232.352671300061,None,,,,,,,,,,,,,sub-098,001,2025-06-25_15h10.33.860,cued_mental_stim,2024.2.4,120.81292601824202,1,2,"['1', '2']",2025-06-25 15h10.56.758963 -0400,
2,forward,1 ->,stimuli/face.png,1,70,70,0,1,1,2.3125846998300403,None,None,None,3,0.6229409999214113,None,None,,,0,70,70,58,1232.3605031000916,,,,,,,,,,,,,,,,1232.3527498000767,1232.3605031000916,7.750000804662704e-05,1232.659602199914,1232.6605613001157,1232.6688699999359,1234.647676799912,1234.6643409000244,1244.639380699955,1246.8429207999725,1246.8429207999725,1248.8349832000677,1248.8435959999915,1249.1606048000976,1,1,2.3125846998300403,None,1249.1611671999563,1249.1725616999902,1249.1725616999902,1249.1725616999902,1249.802628699923,None,None,3,0.6229409999214113,None,1249.8027767001186,1249.8027931000106,None,,,,,,,,,,,,,sub-098,001,2025-06-25_15h10.33.860,cued_mental_stim,2024.2.4,120.81292601824202,1,2,"['1', '2']",2025-06-25 15h10.56.758963 -0400,
3,backward,<- 4,stimuli/face_lure.png,2,71,71,0,2,1,2.8593401000835,None,None,None,2,0.6140653998591006,None,None,,,0,71,71,68,1249.8099267999642,,,,,,,,,,,,,,,,1249.802873800043,1249.8099267999642,8.099991828203201e-05,1250.1061650000047,1250.1082204000559,1250.114574200008,1252.0975371000823,1252.106015899917,1262.0892471999396,1263.4802252999507,1263.4802252999507,1265.4678491000086,1265.4802359999157,1266.3423029000405,2,1,2.8593401000835,None,1266.3428601999767,1266.3501818000805,1266.3501818000805,1266.3501818000805,1266.967663000105,None,None,2,0.6140653998591006,None,1266.967789300019,1266.9678034998942,None,,,,,,,,,,,,,sub-098,001,2025-06-25_15h10.33.860,cued_mental_stim,2024.2.4,120.81292601824202,1,2,"['1', '2']",2025-06-25 15h10.56.758963 -0400,
2,backward,<- 4,stimuli/scissor_lure.png,2,72,72,0,2,1,2.2198175999801606,None,None,None,2,0.15711889998055995,None,None,,,0,72,72,34,1266.9706431999803,,,,,,,,,,,,,,,,1266.9678768999875,1266.9706431999803,7.659988477826118e-05,1267.2675075998995,1267.2684690000024,1267.2708087998908,1269.2642453999724,1269.2642453999724,1279.2598164998926,1282.0959801001009,1282.0959801001009,1284.0890470999293,1284.097486200044,1284.3226103999186,2,1,2.2198175999801606,None,1284.3231776000466,1284.334663900081,1284.334663900081,1284.334663900081,1284.4975358000956,None,None,2,0.15711889998055995,None,1284.4977369999979,1284.4977518001106,None,1267.2708087998908,,,,,,,,,,,,sub-098,001,2025-06-25_15h10.33.860,cued_mental_stim,2024.2.4,120.81292601824202,1,2,"['1', '2']",2025-06-25 15h10.56.758963 -0400,
3,backward,<- 4,stimuli/face_lure.png,2,73,73,0,2,1,2.465294500114396,None,None,None,2,0.5402334001846611,None,None,,,0,73,73,94,1284.5052926000208,,,,,,,,,,,,,,,,1284.4978243999649,1284.5052926000208,7.670000195503235e-05,1284.801433000015,1284.8023371999152,1284.8093063998967,1286.7888982000295,1286.8058533000294,1296.7807048999239,1297.833883699961,1297.833883699961,1299.834553600056,1299.834553600056,1300.3056991000194,2,1,2.465294500114396,None,1300.3062551999465,1300.3194025000557,1300.3194025000557,1300.3194025000557,1300.860666600056,None,None,2,0.5402334001846611,None,1300.8607973000035,1300.8608140998986,None,,,,,,,,,,,,,sub-098,001,2025-06-25_15h10.33.860,cued_mental_stim,2024.2.4,120.81292601824202,1,2,"['1', '2']",2025-06-25 15h10.56.758963 -0400,
3,forward,1 ->,stimuli/ciseau.png,1,74,74,0,1,1,2.232631399994716,None,None,None,2,0.2810172000899911,None,None,,,0,74,74,95,1300.8680771000218,,,,,,,,,,,,,,,,1300.8608963000588,1300.8680771000218,8.219992741942406e-05,1301.1643250000197,1301.1663176999427,1301.1761145000346,1303.159510999918,1303.1676030999515,1313.1466570999473,1314.586771100061,1314.586771100061,1316.580477700103,1316.5971009999048,1316.8225928000174,1,1,2.232631399994716,None,1316.8231748999096,1316.8343839999288,1316.8343839999288,1316.8343839999288,1317.1176181000192,None,None,2,0.2810172000899911,None,1317.1177483000793,1317.1177652000915,None,,,,,,,,,,,,,sub-098,001,2025-06-25_15h10.33.860,cued_mental_stim,2024.2.4,120.81292601824202,1,2,"['1', '2']",2025-06-25 15h10.56.758963 -0400,
3,forward,1 ->,stimuli/zèbre.png,1,75,75,0,1,1,2.2394044001121074,None,None,None,2,0.1975235000718385,None,None,,,0,75,75,93,1317.1255588999484,,,,,,,,,,,,,,,,1317.1178437999915,1317.1255588999484,7.87999015301466e-05,1317.4217254999094,1317.4225488000084,1317.432828699937,1319.4133969999384,1319.4300208999775,1329.4092947000172,1331.7715501999483,1331.7715501999483,1333.7675099000335,1333.7675099000335,1334.0179798000026,1,1,2.2394044001121074,None,1334.018556300085,1334.0300038000569,1334.0300038000569,1334.0300038000569,1334.2606107001193,None,None,2,0.1975235000718385,None,1334.2607619999908,1334.2607762999833,None,,,,,,,,,,,,,sub-098,001,2025-06-25_15h10.33.860,cued_mental_stim,2024.2.4,120.81292601824202,1,2,"['1', '2']",2025-06-25 15h10.56.758963 -0400,
3,forward,1 ->,stimuli/face.png,1,76,76,0,1,1,2.297650699969381,None,None,None,3,0.6559365000575781,None,None,,,0,76,76,88,1334.267457399983,,,,,,,,,,,,,,,,1334.2608493999578,1334.267457399983,7.569999434053898e-05,1334.5632468000986,1334.5641848999076,1334.571527000051,1336.559178699972,1336.5679806999397,1346.5507797999308,1348.378528600093,1348.378528600093,1350.3756335000508,1350.384066300001,1350.6802344000898,1,1,2.297650699969381,None,1350.680773400003,1350.692221000092,1350.692221000092,1350.692221000092,1351.3558765000198,None,None,3,0.6559365000575781,None,1351.3560202000663,1351.356034599943,None,,,,,,,,,,,,,sub-098,001,2025-06-25_15h10.33.860,cued_mental_stim,2024.2.4,120.81292601824202,1,2,"['1', '2']",2025-06-25 15h10.56.758963 -0400,
3,forward,1 ->,stimuli/face.png,1,77,77,0,1,1,2.2607048000209033,None,None,None,4,0.18025989993475378,None,None,,,0,77,77,69,1351.3630808000453,,,,,,,,,,,,,,,,1351.3561070000287,1351.3630808000453,7.439986802637577e-05,1351.6595038999803,1351.6617101000156,1351.6712551000528,1353.6549349999987,1353.6630760000553,1363.645938300062,1364.7909101000987,1364.7909101000987,1366.784259899985,1366.8005604001228,1367.0589821999893,1,1,2.2607048000209033,None,1367.0595253000502,1367.07134949998,1367.07134949998,1367.07134949998,1367.2636206999887,None,None,4,0.18025989993475378,None,1367.2637308000121,1367.2637444001157,None,,,,,,,,,,,,,sub-098,001,2025-06-25_15h10.33.860,cued_mental_stim,2024.2.4,120.81292601824202,1,2,"['1', '2']",2025-06-25 15h10.56.758963 -0400,
2,backward,<- 4,stimuli/scissor_lure.png,2,78,78,0,2,1,2.47002729983069,None,None,None,3,1.3231828000862151,None,None,,,0,78,78,55,1367.2721792000812,,,,,,,,,,,,,,,,1367.263816599967,1367.2721792000812,7.500010542571545e-05,1367.5670741000213,1367.568003399996,1367.5754794001114,1369.5546313000377,1369.5713176999707,1379.542414400028,1381.853270099964,1381.853270099964,1383.8500850999262,1383.8578631000128,1384.3255131000187,2,1,2.47002729983069,None,1384.326095199911,1384.3370292999316,1384.3370292999316,1384.3370292999316,1385.671077700099,None,None,3,1.3231828000862151,None,1385.6712076000404,1385.6712247999385,None,,,,,,,,,,,,,sub-098,001,2025-06-25_15h10.33.860,cued_mental_stim,2024.2.4,120.81292601824202,1,2,"['1', '2']",2025-06-25 15h10.56.758963 -0400,
1,backward,<- 4,stimuli/new4.png,2,79,79,0,2,1,2.300549300154671,None,None,None,2,0.6275770000647753,None,None,,,0,79,79,23,1385.6795310999732,,,,,,,,,,,,,,,,1385.6713080001064,1385.6795310999732,8.25000461190939e-05,1385.9753551001195,1385.9763104000594,1385.985383399995,1387.962793600047,1387.9797908999026,1397.9543715000618,1399.5829664000776,1399.5829664000776,1401.575960899936,1401.5832491000183,1401.8841586001217,2,1,2.300549300154671,None,1401.8847368001007,1401.8959407999646,1401.8959407999646,1401.8959407999646,1402.5300483999308,None,None,2,0.6275770000647753,None,1402.5302478999365,1402.5302639999427,None,,,,,,,,,,,,,sub-098,001,2025-06-25_15h10.33.860,cued_mental_stim,2024.2.4,120.81292601824202,1,2,"['1', '2']",2025-06-25 15h10.56.758963 -0400,
2,backward,<- 4,stimuli/new1.png,2,80,80,0,2,1,2.7380532000679523,None,None,None,3,0.5106424998957664,None,None,,,0,80,80,60,1402.5396912998985,,,,,,,,,,,,,,,,1402.5303448999766,1402.5396912998985,8.219992741942406e-05,1402.8336887999903,1402.8350674000103,1402.841767600039,1404.8207767000422,1404.8376406000461,1414.816816699924,1417.761176600121,1417.761176600121,1419.7581879000645,1419.766990999924,1420.5051808999851,2,1,2.7380532000679523,None,1420.5057836000342,1420.5165599000175,1420.5165599000175,1420.5165599000175,1421.0344779000152,None,None,3,0.5106424998957664,None,1421.0346276999917,1421.0346449001227,None,,,,,,,,,,,,,sub-098,001,2025-06-25_15h10.33.860,cued_mental_stim,2024.2.4,120.81292601824202,1,2,"['1', '2']",2025-06-25 15h10.56.758963 -0400,
3,forward,1 ->,stimuli/banane.png,1,81,81,0,1,1,2.1786122999619693,None,None,None,3,0.5955988001078367,None,None,,,0,81,81,81,1421.0415117999073,,,,,,,,,,,,,,,,1421.03472100012,1421.0415117999073,7.720012217760086e-05,1421.3375985000748,1421.3385054999962,1421.3457790999673,1423.3287734000478,1423.3376827000175,1433.3246520000976,1436.289066700032,1436.289066700032,1438.2872065000702,1438.2872065000702,1438.4753785000648,1,1,2.1786122999619693,None,1438.4759808001108,1438.4876268000808,1438.4876268000808,1438.4876268000808,1439.0965736000799,None,None,3,0.5955988001078367,None,1439.0967341999058,1439.0967506000306,None,,,,,,,,,,,,,sub-098,001,2025-06-25_15h10.33.860,cued_mental_stim,2024.2.4,120.81292601824202,1,2,"['1', '2']",2025-06-25 15h10.56.758963 -0400,
3,forward,1 ->,stimuli/zèbre.png,1,82,82,0,1,1,2.736637599999085,None,None,None,3,1.3346681999973953,None,None,,,0,82,82,87,1439.1041584000923,,,,,,,,,,,,,,,,1439.096831999952,1439.1041584000923,8.179992437362671e-05,1439.4001802001148,1439.4022631000262,1439.4125439000782,1441.3914131999481,1441.4078794999514,1451.382907900028,1453.7788027999923,1453.7788027999923,1455.77414819994,1455.7824957000557,1456.5204282000195,1,1,2.736637599999085,None,1456.5209389000665,1456.5328901999164,1456.5328901999164,1456.5328901999164,1457.8825385998935,None,None,3,1.3346681999973953,None,1457.8827059001196,1457.882719800109,None,,,,,,,,,,,,,sub-098,001,2025-06-25_15h10.33.860,cued_mental_stim,2024.2.4,120.81292601824202,1,2,"['1', '2']",2025-06-25 15h10.56.758963 -0400,
1,backward,<- 4,stimuli/new2.png,2,83,83,0,2,1,2.5260917998384684,None,None,None,2,0.5888624000363052,None,None,,,0,83,83,26,1457.8912822999991,,,,,,,,,,,,,,,,1457.8827923999634,1457.8912822999991,7.519987411797047e-05,1458.1869993000291,1458.1878533000126,1458.1954528000206,1460.1745523000136,1460.1908998000436,1470.1618009000085,1471.9656708000693,1471.9656708000693,1473.9523467000108,1473.9605765999295,1474.4938105999026,2,1,2.5260917998384684,None,1474.4943719001021,1474.5024165001232,1474.5024165001232,1474.5024165001232,1475.0998672998976,None,None,2,0.5888624000363052,None,1475.1000191001222,1475.100035399897,None,,,,,,,,,,,,,sub-098,001,2025-06-25_15h10.33.860,cued_mental_stim,2024.2.4,120.81292601824202,1,2,"['1', '2']",2025-06-25 15h10.56.758963 -0400,
1,backward,<- 4,stimuli/new3.png,2,84,84,0,2,1,2.231361099984497,None,None,None,2,0.5486779999919236,None,None,,,0,84,84,16,1475.10782080004,,,,,,,,,,,,,,,,1475.100114400033,1475.10782080004,7.979990914463997e-05,1475.4035853999667,1475.4044904001057,1475.411858699983,1477.395621499978,1477.403458799934,1487.3909726000857,1488.532978999894,1488.532978999894,1490.5282892000396,1490.5282892000396,1490.7704880998936,2,1,2.231361099984497,None,1490.771096300101,1490.7826414001174,1490.7826414001174,1490.7826414001174,1491.3329628999345,None,None,2,0.5486779999919236,None,1491.3330890999641,1491.3331051999703,None,,,,,,,,,,,,,sub-098,001,2025-06-25_15h10.33.860,cued_mental_stim,2024.2.4,120.81292601824202,1,2,"['1', '2']",2025-06-25 15h10.56.758963 -0400,
3,forward,1 ->,stimuli/ciseau.png,1,85,85,0,1,1,2.206171599915251,None,None,None,4,0.1062685998622328,None,None,,,0,85,85,79,1491.3409784999676,,,,,,,,,,,,,,,,1491.3331861000042,1491.3409784999676,8.199992589652538e-05,1491.636873899959,1491.6381284999661,1491.6448749001138,1493.6285711999517,1493.6369982000906,1503.6159353998955,1505.0449679999147,1505.0449679999147,1507.0366988999303,1507.0448837000877,1507.2536577000283,1,1,2.206171599915251,None,1507.2542566000484,1507.2654649999458,1507.2654649999458,1507.2654649999458,1507.3792467000894,None,None,4,0.1062685998622328,None,1507.379479700001,1507.379496099893,None,,,,,,,,,,,,,sub-098,001,2025-06-25_15h10.33.860,cued_mental_stim,2024.2.4,120.81292601824202,1,2,"['1', '2']",2025-06-25 15h10.56.758963 -0400,
2,forward,1 ->,stimuli/ciseau.png,1,86,86,0,1,1,0.5073589999228716,None,None,None,3,1.865985699929297,None,None,,,0,86,86,32,1507.386226600036,,,,,,,,,,,,,,,,1507.3795763999224,1507.386226600036,8.040014654397964e-05,1507.6867460999638,1507.6888949000277,1507.6954997999128,1509.6741728000343,1509.6907748999074,1519.6656468000729,1521.0321730000433,1521.0321730000433,,,1521.5469549000263,1,1,0.5073589999228716,None,1521.5475280000828,1521.5614982000552,1521.5614982000552,1521.5614982000552,1523.4291068001185,None,None,3,1.865985699929297,None,1523.429259299999,1523.4292762000114,None,,,,,,,,,,,,,sub-098,001,2025-06-25_15h10.33.860,cued_mental_stim,2024.2.4,120.81292601824202,1,2,"['1', '2']",2025-06-25 15h10.56.758963 -0400,
1,backward,<- 4,stimuli/new4.png,2,87,87,0,2,1,0.6893239999189973,None,None,None,2,0.5606444000732154,None,None,,,0,87,87,24,1523.4365632999688,,,,,,,,,,,,,,,,1523.4293577000499,1523.4365632999688,8.329981938004494e-05,1523.7326158001088,1523.7348396999296,1523.7414096998982,1525.723934599897,1525.7325492000673,1535.715697699925,1537.3697750999127,1537.3697750999127,,,1538.0616625000257,2,1,0.6893239999189973,None,1538.062210300006,1538.0754581000656,1538.0754581000656,1538.0754581000656,1538.6461380999535,None,None,2,0.5606444000732154,None,1538.6462842999026,1538.646302399924,None,,,,,,,,,,,,,sub-098,001,2025-06-25_15h10.33.860,cued_mental_stim,2024.2.4,120.81292601824202,1,2,"['1', '2']",2025-06-25 15h10.56.758963 -0400,
2,backward,<- 4,stimuli/new3.png,2,88,88,0,2,1,1.3445083999540657,None,None,None,2,0.5171445999294519,None,None,,,0,88,88,63,1538.6527760999743,,,,,,,,,,,,,,,,1538.646397100063,1538.6527760999743,9.639980271458626e-05,1538.94891320006,1538.949908199953,1538.9571054000407,1540.9404460000806,1540.9487656999845,1550.9361890999135,1552.132025500061,1552.132025500061,,,1553.4826686000451,2,1,1.3445083999540657,None,1553.4832242000848,1553.4943752998952,1553.4943752998952,1553.4943752998952,1554.0159962999169,None,None,2,0.5171445999294519,None,1554.0161238000728,1554.0161379000638,None,,,,,,,,,,,,,sub-098,001,2025-06-25_15h10.33.860,cued_mental_stim,2024.2.4,120.81292601824202,1,2,"['1', '2']",2025-06-25 15h10.56.758963 -0400,
2,forward,1 ->,stimuli/ciseau.png,1,89,89,0,1,1,0.5423560999333858,None,None,None,3,0.7283530998975039,None,None,,,0,89,89,37,1554.0236949999817,,,,,,,,,,,,,,,,1554.0162114999257,1554.0236949999817,7.779989391565323e-05,1554.3199652999174,1554.3208699000534,1554.3275238999631,1556.3066060999408,1556.323863199912,1566.2987331000622,1567.8526620001066,1567.8526620001066,,,1568.3992777999956,1,1,0.5423560999333858,None,1568.3999465000816,1568.4110302999616,1568.4110302999616,1568.4110302999616,1569.1490042000078,None,None,3,0.7283530998975039,None,1569.1492437000852,1569.1492618001066,None,,,,,,,,,,,,,sub-098,001,2025-06-25_15h10.33.860,cued_mental_stim,2024.2.4,120.81292601824202,1,2,"['1', '2']",2025-06-25 15h10.56.758963 -0400,
1,forward,1 ->,stimuli/zèbre.png,1,90,90,0,1,1,0.9800263999495655,None,None,None,3,0.5239601999055594,None,None,,,0,90,90,0,1569.156661099987,,,,,,,,,,,,,,,,1569.1493430000264,1569.156661099987,8.310005068778992e-05,1569.4525333000347,1569.453462800011,1569.4610389000736,1571.4484822000377,1571.456911999965,1581.4442731000017,1583.0637119999155,1583.0637119999155,,,1584.0474209000822,1,1,0.9800263999495655,None,1584.0480732999276,1584.0553254000843,1584.0553254000843,1584.0553254000843,1584.5819844000507,None,None,3,0.5239601999055594,None,1584.582262400072,1584.5822797000874,None,,,,,,,,,,,,,sub-098,001,2025-06-25_15h10.33.860,cued_mental_stim,2024.2.4,120.81292601824202,1,2,"['1', '2']",2025-06-25 15h10.56.758963 -0400,
2,forward,1 ->,stimuli/zèbre.png,1,91,91,0,1,1,0.8506968000438064,None,None,None,3,0.43799180001951754,None,None,,,0,91,91,62,1584.5898271000478,,,,,,,,,,,,,,,,1584.5823639999144,1584.5898271000478,8.580018766224384e-05,1584.8858886999078,1584.8877195999958,1584.8947654999793,1586.8730649999343,1586.8941071999725,1596.8689604999963,1598.9209483999293,1598.9209483999293,,,1599.7776826999616,1,1,0.8506968000438064,None,1599.778588199988,1599.7895621999633,1599.7895621999633,1599.7895621999633,1600.2362397999968,None,None,3,0.43799180001951754,None,1600.2363599000964,1600.236377299996,None,,,,,,,,,,,,,sub-098,001,2025-06-25_15h10.33.860,cued_mental_stim,2024.2.4,120.81292601824202,1,2,"['1', '2']",2025-06-25 15h10.56.758963 -0400,
1,backward,<- 4,stimuli/banana_lure.png,2,92,92,0,2,1,0.9995836999733001,None,None,None,2,0.5586981000378728,None,None,,,0,92,92,12,1600.243903500028,,,,,,,,,,,,,,,,1600.2364533001091,1600.243903500028,7.87999015301466e-05,1600.539877400035,1600.5407519999426,1600.5481179999188,1602.5273281000555,1602.5440438999794,1612.5186292999424,1614.0602899999358,1614.0602899999358,,,1615.0651730999816,2,1,0.9995836999733001,None,1615.065731300041,1615.0771413000766,1615.0771413000766,1615.0771413000766,1615.6443823999725,None,None,2,0.5586981000378728,None,1615.6445472999476,1615.644565399969,None,,,,,,,,,,,,,sub-098,001,2025-06-25_15h10.33.860,cued_mental_stim,2024.2.4,120.81292601824202,1,2,"['1', '2']",2025-06-25 15h10.56.758963 -0400,
3,backward,<- 4,stimuli/banana_lure.png,2,93,93,0,2,1,0.7245871000923216,None,None,None,2,0.6786206997931004,None,None,,,0,93,93,75,1615.652023700066,,,,,,,,,,,,,,,,1615.6446412000805,1615.652023700066,7.870001718401909e-05,1615.9483227001037,1615.950693000108,1615.9606544999406,1617.9352444000542,1617.952117699897,1627.92696660012,1630.0231955999043,1630.0231955999043,,,1630.7522418999579,2,1,0.7245871000923216,None,1630.7527900999412,1630.7649087000173,1630.7649087000173,1630.7649087000173,1631.4482311001047,None,None,2,0.6786206997931004,None,1631.4483880999032,1631.4484021998942,None,,,,,,,,,,,,,sub-098,001,2025-06-25_15h10.33.860,cued_mental_stim,2024.2.4,120.81292601824202,1,2,"['1', '2']",2025-06-25 15h10.56.758963 -0400,
1,forward,1 ->,stimuli/ciseau.png,1,94,94,0,1,1,0.6831784001551569,None,None,None,2,1.5522175999358296,None,None,,,0,94,94,18,1631.4558298001066,,,,,,,,,,,,,,,,1631.4484763001092,1631.4558298001066,7.759989239275455e-05,1631.7519829999655,1631.7529035999905,1631.7603875000495,1633.7395735001191,1633.7561369000468,1643.7350822999142,1644.75195299997,1644.75195299997,,,1645.4391055000015,1,1,0.6831784001551569,None,1645.4398032999597,1645.4517787001096,1645.4517787001096,1645.4517787001096,1647.0156509999651,None,None,2,1.5522175999358296,None,1647.0159001001157,1647.0159167000093,None,,,,,,,,,,,,,sub-098,001,2025-06-25_15h10.33.860,cued_mental_stim,2024.2.4,120.81292601824202,1,2,"['1', '2']",2025-06-25 15h10.56.758963 -0400,
1,backward,<- 4,stimuli/new1.png,2,95,95,0,2,1,0.5977891001384705,None,None,None,2,0.6014824998565018,None,None,,,0,95,95,30,1647.0227967998944,,,,,,,,,,,,,,,,1647.0160046999808,1647.0227967998944,9.019998833537102e-05,1647.3190955999307,1647.3200141000561,1647.3271023000125,1649.31041990011,1649.31864650012,1659.3016454000026,1660.701662400039,1660.701662400039,,,1661.3000994999893,2,1,0.5977891001384705,None,1661.3006706000306,1661.3139742999338,1661.3139742999338,1661.3139742999338,1661.9181862000842,None,None,2,0.6014824998565018,None,1661.9183793000411,1661.9183952999301,None,,,,,,,,,,,,,sub-098,001,2025-06-25_15h10.33.860,cued_mental_stim,2024.2.4,120.81292601824202,1,2,"['1', '2']",2025-06-25 15h10.56.758963 -0400,
,,,,,,,,,,,,,,,,,,,,,,,,,,,,,,,,,,,,,,,,,,,,,,,,,,,,,,,,,,,,,,,,,,,,,,,,,,,,1662.0565520999953,1662.0640624000225,1662.0640624000225,1663.3438971000724,space,1.275383499916643,None,sub-098,001,2025-06-25_15h10.33.860,cued_mental_stim,2024.2.4,120.81292601824202,1,2,"['1', '2']",2025-06-25 15h10.56.758963 -0400,
