image_file,presented_word,is_match,blank_duration,iti_duration,corrAns,thisN,thisTrialN,thisRepN,key_resp.keys,key_resp.corr,key_resp.rt,key_resp.duration,finish_time.keys,finish_time.rt,finish_time.duration,inside_loop_trials.thisRepN,inside_loop_trials.thisTrialN,inside_loop_trials.thisN,inside_loop_trials.thisIndex,thisRow.t,notes,setup_experiment.started,instr_text.started,instr_resp.started,setup_experiment.stopped,instr_resp.keys,instr_resp.rt,instr_resp.duration,start_eeg.started,text_2.started,key_resp_3.started,start_eeg.stopped,key_resp_3.keys,key_resp_3.rt,key_resp_3.duration,load_images.started,text_3.started,preload_current_image_2.started,load_images.stopped,fixation_2.started,fixation.started,fixation_2.stopped,trials_image.started,stim_image.started,stim_image.stopped,trials_image.stopped,trials_word.started,stim_word.started,stim_word.stopped,trials_word.stopped,blank.started,blank_interval.started,blank_interval.stopped,blank.stopped,response.started,key_resp.started,text.started,response.stopped,inside_loop_trials.key_resp.keys,inside_loop_trials.key_resp.corr,inside_loop_trials.key_resp.rt,inside_loop_trials.key_resp.duration,image_presented,word_presented,is_match_condition,response_given,response_correct,response_rt,feedback_message_to_show,show_feedback_flag_value,feedback_routine.started,feedback_routine.stopped,iti_routine.started,iti_fixation.started,iti_fixation.stopped,iti_routine.stopped,break_2.started,break_2.stopped,inside_loop_trials.finish_time.keys,text_3.stopped,fixation.stopped,feedback_text_display.started,feedback_text_display.stopped,timer_text.started,finish_time.started,inside_loop_trials.finish_time.rt,inside_loop_trials.finish_time.duration,end.started,end_text.started,key_resp_2.started,end.stopped,key_resp_2.keys,key_resp_2.rt,key_resp_2.duration,participant,session,date,expName,psychopyVersion,frameRate,match_key,mismatch_key,allowed_keys_list,expStart,
,,,,,,,,,,,,,,,,,,,,,,0.05705000017769635,0.06629650015383959,0.06629650015383959,5.010257099987939,space,4.940689200069755,None,,,,,,,,,,,,,,,,,,,,,,,,,,,,,,,,,,,,,,,,,,,,,,,,,,,,,,,,,,,,,,,,,,,sub-098,001,2025-06-25_13h51.59.585,FunctionalLocalizer,2024.2.4,115.53561165268717,1,2,"['1', '2']",2025-06-25 13h53.02.593239 -0400,
,,,,,,,,,,,,,,,,,,,,,,,,,,,,,5.07548680016771,5.087399200070649,5.087399200070649,5.950363600160927,space,0.855956899933517,None,,,,,,,,,,,,,,,,,,,,,,,,,,,,,,,,,,,,,,,,,,,,,,,,,,,,,,,,,,,,sub-098,001,2025-06-25_13h51.59.585,FunctionalLocalizer,2024.2.4,115.53561165268717,1,2,"['1', '2']",2025-06-25 13h53.02.593239 -0400,
stimuli/zèbre.png,banane,mismatch,1.19,2.62,2,0,0,0,2,1,0.6214236000087112,None,None,,,0,0,0,0,5.975023000035435,,,,,,,,,,,,,,,,5.965653800172731,5.975023000035435,0.015290800016373396,6.46789460000582,6.467936400091276,6.479081700090319,6.95818810001947,6.959294200176373,6.9709062001202255,7.962449399987236,7.954207299975678,7.954306100029498,7.962449399987236,8.958116800058633,8.95013130013831,8.950248399982229,8.958116800058633,10.353947800118476,10.341617400059476,10.346047700149938,10.353947800118476,10.353947800118476,10.979429900180548,2,1,0.6214236000087112,None,stimuli/zèbre.png,banane,mismatch,2,1,0.6214236000087112,,False,10.97957790014334,10.97959030000493,10.979601700091735,10.98781289998442,13.604063800070435,13.596078300150111,13.596100900089368,13.596115600084886,None,,,,,,,,,,,,,,,,sub-098,001,2025-06-25_13h51.59.585,FunctionalLocalizer,2024.2.4,115.53561165268717,1,2,"['1', '2']",2025-06-25 13h53.02.593239 -0400,
stimuli/face.png,face,match,1.35,1.12,1,1,1,0,1,1,0.4241055999882519,None,None,,,0,1,1,1,13.604063800070435,,,,,,,,,,,,,,,,13.596198900137097,13.604063800070435,8.319993503391743e-05,14.096431500045583,14.096463900059462,14.104042800143361,14.587489700177684,14.588497600052506,14.595970900030807,15.587314000120386,15.579003500053659,15.579091400140896,15.587314000120386,16.583238700171933,16.574951200047508,16.57514249999076,16.583238700171933,18.574728399980813,18.566632700152695,18.56674490007572,18.574728399980813,18.574728399980813,19.004357500001788,1,1,0.4241055999882519,None,stimuli/face.png,face,match,1,1,0.4241055999882519,,False,19.00448980019428,19.00450100004673,19.004512600135058,19.012514300178736,20.12890940019861,20.121029200032353,20.121051100082695,20.12106390018016,None,14.104042800143361,14.595970900030807,,,,,,,,,,,,,,sub-098,001,2025-06-25_13h51.59.585,FunctionalLocalizer,2024.2.4,115.53561165268717,1,2,"['1', '2']",2025-06-25 13h53.02.593239 -0400,
stimuli/ciseau.png,zèbre,mismatch,1.15,2.82,2,2,2,0,2,1,0.3546263000462204,None,None,,,0,2,2,2,20.12890940019861,,,,,,,,,,,,,,,,20.12114390009083,20.12890940019861,7.960014045238495e-05,20.625112200155854,20.62515790015459,20.6334883000236,21.116908899974078,21.117884800070897,21.124717600177974,22.116663300199434,22.108260200126097,22.108381500001997,22.116663300199434,23.11216270015575,23.104145199991763,23.104242200031877,23.11216270015575,24.70849940017797,24.699764700140804,24.699888600036502,24.70849940017797,24.70849940017797,25.071222900180146,2,1,0.3546263000462204,None,stimuli/ciseau.png,zèbre,mismatch,2,1,0.3546263000462204,,False,25.071369200013578,25.07138240011409,25.071395199978724,25.07892070012167,27.891301200026646,27.883154300041497,27.883177099982277,27.883190100081265,None,,21.124717600177974,,,,,,,,,,,,,,sub-098,001,2025-06-25_13h51.59.585,FunctionalLocalizer,2024.2.4,115.53561165268717,1,2,"['1', '2']",2025-06-25 13h53.02.593239 -0400,
stimuli/face.png,banane,mismatch,1.4,1.59,2,3,3,0,2,1,0.30478679994121194,None,None,,,0,3,3,3,27.891301200026646,,,,,,,,,,,,,,,,27.883271099999547,27.891301200026646,7.990002632141113e-05,28.38732450013049,28.387345400173217,28.395493700169027,28.878987099975348,28.879965499974787,28.887508200015873,29.878629900049418,29.871263400185853,29.871370100183412,29.878629900049418,30.874616499990225,30.866829700069502,30.8669443000108,30.874616499990225,32.8707230000291,32.86227899999358,32.862417600117624,32.8707230000291,32.8707230000291,33.17911300016567,2,1,0.30478679994121194,None,stimuli/face.png,banane,mismatch,2,1,0.30478679994121194,,False,33.179255000082776,33.17926780018024,33.17928000004031,33.18706520018168,34.77023520017974,34.7623589001596,34.762382300104946,34.76239600009285,None,,28.887508200015873,,,,,,,,,,,,,,sub-098,001,2025-06-25_13h51.59.585,FunctionalLocalizer,2024.2.4,115.53561165268717,1,2,"['1', '2']",2025-06-25 13h53.02.593239 -0400,
stimuli/zèbre.png,zèbre,match,1.25,2.88,1,4,4,0,1,1,0.31357549992389977,None,None,,,0,4,4,4,34.77023520017974,,,,,,,,,,,,,,,,34.762481400044635,34.77023520017974,8.510006591677666e-05,35.266200800193474,35.266221600119025,35.27489320002496,35.76223039999604,35.763268399983644,35.77027350012213,36.76624090014957,36.75815890007652,36.75828040018678,36.76624090014957,37.757798600010574,37.74973909999244,37.74986029998399,37.757798600010574,38.94992520008236,38.94166220002808,38.942254499997944,38.94992520008236,38.94992520008236,39.26676869997755,1,1,0.31357549992389977,None,stimuli/zèbre.png,zèbre,match,1,1,0.31357549992389977,,False,39.266911500133574,39.26692429999821,39.266936799976975,39.27451480017044,42.14535910007544,42.137477500131354,42.137501700082794,42.137514900183305,None,,35.77027350012213,,,,,,,,,,,,,,sub-098,001,2025-06-25_13h51.59.585,FunctionalLocalizer,2024.2.4,115.53561165268717,1,2,"['1', '2']",2025-06-25 13h53.02.593239 -0400,
stimuli/ciseau.png,ciseau,match,1.49,2.66,1,5,5,0,1,1,0.44024290004745126,None,None,,,0,5,5,5,42.14535910007544,,,,,,,,,,,,,,,,42.13759550009854,42.14535910007544,8.059991523623466e-05,42.63814980001189,42.638197200139984,42.645762300118804,43.129262200091034,43.1302685001865,43.13690280006267,44.13298059999943,44.124791600042954,44.12489810003899,44.13298059999943,45.12835060013458,45.120299000060186,45.12084660003893,45.12835060013458,46.918999599991366,46.91504970006645,46.91517020016909,46.918999599991366,46.918999599991366,47.36113980016671,1,1,0.44024290004745126,None,stimuli/ciseau.png,ciseau,match,1,1,0.44024290004745126,,False,47.36126899998635,47.36128280009143,47.36129510006867,47.364827800076455,50.014811400091276,50.01032440015115,50.01034800009802,50.01036040019244,None,42.645762300118804,43.13690280006267,,,,,,,,,,,,,,sub-098,001,2025-06-25_13h51.59.585,FunctionalLocalizer,2024.2.4,115.53561165268717,1,2,"['1', '2']",2025-06-25 13h53.02.593239 -0400,
stimuli/banane.png,face,mismatch,1.77,2.58,2,6,6,0,2,1,0.5177420999389142,None,None,,,0,6,6,6,50.014811400091276,,,,,,,,,,,,,,,,50.01044180011377,50.014811400091276,8.040014654397964e-05,50.511870300164446,50.51189190009609,50.52033730014227,51.00409760000184,51.005045800004154,51.011925200000405,52.007758300052956,51.99970929999836,51.999936500098556,52.007758300052956,52.999422300141305,52.99110440001823,52.99121410003863,52.999422300141305,54.48980600014329,54.48583720019087,54.4859794001095,54.48980600014329,54.48980600014329,55.01088530011475,2,1,0.5177420999389142,None,stimuli/banane.png,face,mismatch,2,1,0.5177420999389142,,False,55.01103599998169,55.01104890019633,55.01106130005792,55.014749200083315,57.58138870005496,57.577437800122425,57.577462300192565,57.57747630006634,None,,51.011925200000405,,,,,,,,,,,,,,sub-098,001,2025-06-25_13h51.59.585,FunctionalLocalizer,2024.2.4,115.53561165268717,1,2,"['1', '2']",2025-06-25 13h53.02.593239 -0400,
stimuli/ciseau.png,face,mismatch,1.09,2.94,2,7,7,0,2,1,0.913056000135839,None,None,,,0,7,7,7,57.58138870005496,,,,,,,,,,,,,,,,57.57755869999528,57.58138870005496,8.130003698170185e-05,58.07891060016118,58.07893180008978,58.08679760014638,58.570679099997506,58.57169290003367,58.57841380010359,59.57437749998644,59.566450300160795,59.56660330016166,59.57437749998644,60.56635219999589,60.558079099981114,60.558201000094414,60.56635219999589,61.66177250002511,61.653679999988526,61.6537850999739,61.66177250002511,61.66177250002511,62.58321560011245,2,1,0.913056000135839,None,stimuli/ciseau.png,face,mismatch,2,1,0.913056000135839,,False,62.5833676001057,62.58338070008904,62.58339280006476,62.59102370007895,65.52455219998956,65.51654350012541,65.51656780019403,65.51658020005561,None,,58.57841380010359,,,,,,,,,,,,,,sub-098,001,2025-06-25_13h51.59.585,FunctionalLocalizer,2024.2.4,115.53561165268717,1,2,"['1', '2']",2025-06-25 13h53.02.593239 -0400,
stimuli/zèbre.png,zèbre,match,1.21,1.28,1,8,8,0,1,1,0.3316913000307977,None,None,,,0,8,8,8,65.52455219998956,,,,,,,,,,,,,,,,65.51666640001349,65.52455219998956,8.379993960261345e-05,66.0204606000334,66.02048100018874,66.02827740018256,66.51207020017318,66.51304230000824,66.5203209000174,67.51160420011729,67.50372890010476,67.50387400016189,67.51160420011729,68.50781480013393,68.49939320003614,68.49948350014165,68.50781480013393,70.09932849998586,70.09103760006838,70.09117530006915,70.09932849998586,70.09932849998586,70.43357430002652,1,1,0.3316913000307977,None,stimuli/zèbre.png,zèbre,match,1,1,0.3316913000307977,,False,70.43372460012324,70.43373770010658,70.43375020008534,70.44035340007395,71.71592930005863,71.70747300004587,71.70749610010535,71.70751750003546,None,,66.5203209000174,,,,,,,,,,,,,,sub-098,001,2025-06-25_13h51.59.585,FunctionalLocalizer,2024.2.4,115.53561165268717,1,2,"['1', '2']",2025-06-25 13h53.02.593239 -0400,
stimuli/face.png,zèbre,mismatch,1.55,2.95,2,9,9,0,2,1,0.8363550000358373,None,None,,,0,9,9,9,71.71592930005863,,,,,,,,,,,,,,,,71.7076054001227,71.71592930005863,8.719996549189091e-05,72.21184950019233,72.21186679997481,72.22003170009702,72.7073337000329,72.70834150002338,72.71570260007866,73.70738260005601,73.69992030016147,73.70012370008044,73.70738260005601,74.70322480006143,74.69540420011617,74.69550470006652,74.70322480006143,76.19503010017797,76.18683920009062,76.18692830018699,76.19503010017797,76.19503010017797,77.03688700008206,2,1,0.8363550000358373,None,stimuli/face.png,zèbre,mismatch,2,1,0.8363550000358373,,False,77.03701890003867,77.03703030012548,77.03704249998555,77.04522590013221,79.98650650004856,79.97857920010574,79.97860270016827,79.97861620015465,None,,72.71570260007866,,,,,,,,,,,,,,sub-098,001,2025-06-25_13h51.59.585,FunctionalLocalizer,2024.2.4,115.53561165268717,1,2,"['1', '2']",2025-06-25 13h53.02.593239 -0400,
stimuli/face.png,face,match,1.33,2.38,1,10,10,0,1,1,1.0112622999586165,None,None,,,0,10,10,10,79.98650650004856,,,,,,,,,,,,,,,,79.97869670018554,79.98650650004856,7.92001374065876e-05,80.48293559998274,80.48297640006058,80.49124610004947,80.97868739999831,80.97971550002694,80.98656020010822,81.98228670004755,81.9743926001247,81.97448040009476,81.98228670004755,82.977771300124,82.97023970005102,82.97035140008666,82.977771300124,84.36443880014122,84.3604808000382,84.36061300011352,84.36443880014122,84.36443880014122,85.37748740008101,1,1,1.0112622999586165,None,stimuli/face.png,face,match,1,1,1.0112622999586165,,False,85.37763420003466,85.37764550000429,85.37765730009414,85.38141680019908,87.75727770011872,87.74938810011372,87.7494112001732,87.74942410015501,None,,80.98656020010822,,,,,,,,,,,,,,sub-098,001,2025-06-25_13h51.59.585,FunctionalLocalizer,2024.2.4,115.53561165268717,1,2,"['1', '2']",2025-06-25 13h53.02.593239 -0400,
stimuli/banane.png,ciseau,mismatch,1.6,2.46,2,11,11,0,2,1,0.26993820001371205,None,None,,,0,11,11,11,87.75727770011872,,,,,,,,,,,,,,,,87.7495043000672,87.75727770011872,7.979990914463997e-05,88.25342010008171,88.25344190001488,88.26140339998528,88.74956030002795,88.75053540011868,88.75902810017578,89.75338400015607,89.74481509998441,89.7449267001357,89.75338400015607,90.74921530019492,90.74142109998502,90.74151069996879,90.74921530019492,92.34484250005335,92.33690420002677,92.33701730007306,92.34484250005335,92.34484250005335,92.62453640019521,2,1,0.26993820001371205,None,stimuli/banane.png,ciseau,mismatch,2,1,0.26993820001371205,,False,92.62467489996925,92.62468640017323,92.6246986000333,92.63256840012036,95.08651190018281,95.07823169999756,95.07825410016812,95.07826690003276,None,,88.75902810017578,,,,,,,,,,,,,,sub-098,001,2025-06-25_13h51.59.585,FunctionalLocalizer,2024.2.4,115.53561165268717,1,2,"['1', '2']",2025-06-25 13h53.02.593239 -0400,
stimuli/zèbre.png,zèbre,match,1.48,1.19,1,12,12,0,1,1,0.42198970005847514,None,None,,,0,12,12,12,95.08651190018281,,,,,,,,,,,,,,,,95.07834680005908,95.08651190018281,7.939990609884262e-05,95.58235270017758,95.58237459999509,95.5907615001779,96.07841540011577,96.07940710010007,96.0868049999699,97.07806650013663,97.07032960001379,97.07050250004977,97.07806650013663,98.0695780001115,98.061723300023,98.06183350016363,98.0695780001115,99.1613925001584,99.15336510003544,99.1534881000407,99.1613925001584,99.1613925001584,99.58725720015354,1,1,0.42198970005847514,None,stimuli/zèbre.png,zèbre,match,1,1,0.42198970005847514,,False,99.5875081999693,99.58752260007896,99.5875367000699,99.59469950012863,100.77772430004552,100.77027950016782,100.77030219999142,100.77031469997019,None,,,,,,,,,,,,,,,,sub-098,001,2025-06-25_13h51.59.585,FunctionalLocalizer,2024.2.4,115.53561165268717,1,2,"['1', '2']",2025-06-25 13h53.02.593239 -0400,
stimuli/zèbre.png,ciseau,mismatch,1.7,1.72,2,13,13,0,2,1,0.36578740016557276,None,None,,,0,13,13,13,100.77772430004552,,,,,,,,,,,,,,,,100.7703957001213,100.77772430004552,8.059991523623466e-05,101.27447540010326,101.27451430005021,101.2821675001178,101.76595030003227,101.76693559996784,101.77439120016061,102.77010760013945,102.76182930008508,102.76192010007799,102.77010760013945,103.76164770009927,103.75358130014502,103.7536963999737,103.76164770009927,105.3531555000227,105.345003800001,105.34512850013562,105.3531555000227,105.3531555000227,105.72472180007026,2,1,0.36578740016557276,None,stimuli/zèbre.png,ciseau,mismatch,2,1,0.36578740016557276,,False,105.72492950013839,105.72494100010954,105.72495270008221,105.7322074000258,107.44905390008353,107.44042980019003,107.4404534001369,107.4404668000061,None,,101.77439120016061,,,,,,,,,,,,,,sub-098,001,2025-06-25_13h51.59.585,FunctionalLocalizer,2024.2.4,115.53561165268717,1,2,"['1', '2']",2025-06-25 13h53.02.593239 -0400,
stimuli/banane.png,face,mismatch,1.88,2.94,2,14,14,0,2,1,0.2593555999919772,None,None,,,0,14,14,14,107.44905390008353,,,,,,,,,,,,,,,,107.440547300037,107.44905390008353,8.039991371333599e-05,107.94471190008335,107.94473330001347,107.95303400000557,108.4366346001625,108.43762610014528,108.44456299999729,109.4402881001588,109.43231090018526,109.43241930007935,109.4402881001588,110.43229300016537,110.42391330003738,110.4240443999879,110.43229300016537,112.2282321001403,112.22017660015263,112.22029980015941,112.2282321001403,112.2282321001403,112.4950868000742,2,1,0.2593555999919772,None,stimuli/banane.png,face,mismatch,2,1,0.2593555999919772,,False,112.49520770017989,112.49522050004452,112.49523270013742,112.50319620012306,115.44066550000571,115.43263750011101,115.43265990004875,115.43267210014164,None,,108.44456299999729,,,,,,,,,,,,,,sub-098,001,2025-06-25_13h51.59.585,FunctionalLocalizer,2024.2.4,115.53561165268717,1,2,"['1', '2']",2025-06-25 13h53.02.593239 -0400,
stimuli/ciseau.png,ciseau,match,1.29,2.35,1,15,15,0,1,1,0.3831654000096023,None,None,,,0,15,15,15,115.44066550000571,,,,,,,,,,,,,,,,115.43275390006602,115.44066550000571,8.190004155039787e-05,115.93663380015641,115.93668080004863,115.9458838000428,116.43639570008963,116.4375052000396,116.44447800004855,117.43597160000354,117.42811810015701,117.42824060004205,117.43597160000354,118.42827030015178,118.41993990004994,118.42005690000951,118.42827030015178,119.42364539997652,119.41530059999786,119.41542680002749,119.42364539997652,119.42364539997652,119.81143400003202,1,1,0.3831654000096023,None,stimuli/ciseau.png,ciseau,match,1,1,0.3831654000096023,,False,119.81165030016564,119.8116636001505,119.8116755001247,119.8198727001436,122.1612476001028,122.15262609999627,122.15264840004966,122.15266080014408,None,,,,,,,,,,,,,,,,sub-098,001,2025-06-25_13h51.59.585,FunctionalLocalizer,2024.2.4,115.53561165268717,1,2,"['1', '2']",2025-06-25 13h53.02.593239 -0400,
stimuli/ciseau.png,face,mismatch,1.69,2.37,2,16,16,0,1,0,1.210454000160098,None,None,,,0,16,16,16,122.1612476001028,,,,,,,,,,,,,,,,122.15274100005627,122.1612476001028,8.00001434981823e-05,122.65746430004947,122.65750470012426,122.66554740001447,123.15280680009164,123.15390620008111,123.16122520016506,124.15306030004285,124.14639690006152,124.14650470018387,124.15306030004285,125.14939470007084,125.14046120014973,125.14061530004255,125.14939470007084,126.94070390006527,126.93216060008854,126.93226670008153,126.94070390006527,126.94070390006527,128.15734710008837,1,0,1.210454000160098,None,stimuli/ciseau.png,face,mismatch,1,0,1.210454000160098,Mauvaise réponse,True,128.15951030002907,129.6498194001615,129.6498424001038,129.6569688001182,132.01394920004532,132.00996110006236,132.00998460012488,132.0099985001143,None,,,128.1651865001768,129.6569688001182,,,,,,,,,,,,sub-098,001,2025-06-25_13h51.59.585,FunctionalLocalizer,2024.2.4,115.53561165268717,1,2,"['1', '2']",2025-06-25 13h53.02.593239 -0400,
stimuli/zèbre.png,zèbre,match,1.62,2.69,1,17,17,0,1,1,0.4484775001183152,None,None,,,0,17,17,17,132.01394920004532,,,,,,,,,,,,,,,,132.0100824001711,132.01394920004532,8.279993198812008e-05,132.51563660008833,132.51568559999578,132.52410150016658,133.0107022000011,133.0119553001132,133.01972730015405,134.01511760009453,134.00673250015825,134.0068397000432,134.01511760009453,135.01139650004916,135.00292920018546,135.00309370015748,135.01139650004916,136.00678690010682,135.99872110015713,135.99884650018066,136.00678690010682,136.00678690010682,136.45771310012788,1,1,0.4484775001183152,None,stimuli/zèbre.png,zèbre,match,1,1,0.4484775001183152,,False,136.4581575000193,136.45817610016093,136.45819320017472,136.46525320014916,139.14877089997754,139.1403691000305,139.1403928999789,139.1404059000779,None,,,,,,,,,,,,,,,,sub-098,001,2025-06-25_13h51.59.585,FunctionalLocalizer,2024.2.4,115.53561165268717,1,2,"['1', '2']",2025-06-25 13h53.02.593239 -0400,
stimuli/banane.png,banane,match,1.07,2.28,1,18,18,0,1,1,0.4160267000552267,None,None,,,0,18,18,18,139.14877089997754,,,,,,,,,,,,,,,,139.1404910001438,139.14877089997754,8.379993960261345e-05,139.64443100010976,139.64445280004293,139.65236410009675,140.14026060001925,140.14127680007368,140.14884070004337,141.14429680001922,141.13611429999582,141.13620100007392,141.14429680001922,142.13632720010355,142.12791840010323,142.1280336000491,142.13632720010355,143.5272941000294,143.51944499998353,143.51963510015048,143.5272941000294,143.5272941000294,143.9444524999708,1,1,0.4160267000552267,None,stimuli/banane.png,banane,match,1,1,0.4160267000552267,,False,143.94475280004553,143.944767100038,143.94478020002134,143.95300650014542,146.23187090014108,146.22378850006498,146.22381160012446,146.2238253999967,None,,140.14884070004337,,,,,,,,,,,,,,sub-098,001,2025-06-25_13h51.59.585,FunctionalLocalizer,2024.2.4,115.53561165268717,1,2,"['1', '2']",2025-06-25 13h53.02.593239 -0400,
stimuli/zèbre.png,ciseau,mismatch,1.68,1.85,2,19,19,0,2,1,0.3165624998509884,None,None,,,0,19,19,19,146.23187090014108,,,,,,,,,,,,,,,,146.22390630003065,146.23187090014108,7.979990914463997e-05,146.72764150006697,146.72766450000927,146.73575600003824,147.22347460011952,147.22448770003393,147.23177230008878,148.2276141999755,148.219519500155,148.21962870005518,148.2276141999755,149.21927000000142,149.21099980012514,149.21111000003293,149.21927000000142,150.41087820008397,150.40251180017367,150.4027541000396,150.41087820008397,150.41087820008397,150.72811740008183,2,1,0.3165624998509884,None,stimuli/zèbre.png,ciseau,mismatch,2,1,0.3165624998509884,,False,150.72825650009327,150.7282696000766,150.72828160016797,150.73614450008608,152.5774772001896,152.56920170015655,152.56922530010343,152.56923909997568,None,,147.23177230008878,,,,,,,,,,,,,,sub-098,001,2025-06-25_13h51.59.585,FunctionalLocalizer,2024.2.4,115.53561165268717,1,2,"['1', '2']",2025-06-25 13h53.02.593239 -0400,
stimuli/banane.png,banane,match,1.02,1.27,1,20,20,0,1,1,0.3463552000466734,None,None,,,0,20,20,20,152.5774772001896,,,,,,,,,,,,,,,,152.56932380003855,152.5774772001896,8.399994112551212e-05,153.07348160003312,153.07350410008803,153.08168780012056,153.56507480004802,153.566162600182,153.5733772001695,154.56549410009757,154.556895500049,154.55744260014035,154.56549410009757,155.5608632999938,155.55264630005695,155.55273400014266,155.5608632999938,157.35686950013041,157.34819549997337,157.34834300004877,157.35686950013041,157.35686950013041,157.7072344000917,1,1,0.3463552000466734,None,stimuli/banane.png,banane,match,1,1,0.3463552000466734,,False,157.70739830005914,157.70741130015813,157.70742370001972,157.71495459997095,158.98164810007438,158.97329590003937,158.97331929998472,158.97333259996958,None,,153.5733772001695,,,,,,,,,,,,,,sub-098,001,2025-06-25_13h51.59.585,FunctionalLocalizer,2024.2.4,115.53561165268717,1,2,"['1', '2']",2025-06-25 13h53.02.593239 -0400,
stimuli/ciseau.png,zèbre,mismatch,1.43,1.25,2,21,21,0,2,1,0.29036530014127493,None,None,,,0,21,21,21,158.98164810007438,,,,,,,,,,,,,,,,158.9734177000355,158.98164810007438,8.5099833086133e-05,159.4776828000322,159.47770290006883,159.48578350013122,159.96940070018172,159.9704167000018,159.97735380008817,160.97335940017365,160.96507470007055,160.96519610006362,160.97335940017365,161.96493090013973,161.95688050007448,161.9569964001421,161.96493090013973,162.9565151000861,162.94860080000944,162.94872630015016,162.9565151000861,162.9565151000861,163.2488259000238,2,1,0.29036530014127493,None,stimuli/ciseau.png,zèbre,mismatch,2,1,0.29036530014127493,,False,163.24911660002545,163.2491307000164,163.24914330011234,163.25640360009857,164.49828000017442,164.49009940004908,164.4901225999929,164.49013509997167,None,,159.97735380008817,,,,,,,,,,,,,,sub-098,001,2025-06-25_13h51.59.585,FunctionalLocalizer,2024.2.4,115.53561165268717,1,2,"['1', '2']",2025-06-25 13h53.02.593239 -0400,
stimuli/face.png,banane,mismatch,1.47,2.64,2,22,22,0,2,1,0.23341260012239218,None,None,,,0,22,22,22,164.49828000017442,,,,,,,,,,,,,,,,164.49021439999342,164.49828000017442,7.950002327561378e-05,164.99430690007284,164.99435290019028,165.00243040011264,165.48550510010682,165.48649370018393,165.49402680015191,166.4899775001686,166.48168460000306,166.48178590019234,166.4899775001686,167.48149060015567,167.47356540011242,167.47368250018917,167.48149060015567,168.47738030017354,168.46940400009044,168.46951460000128,168.47738030017354,168.47738030017354,168.7194232000038,2,1,0.23341260012239218,None,stimuli/face.png,banane,mismatch,2,1,0.23341260012239218,,False,168.71956870006397,168.71958250016905,168.71959500014782,168.7273038001731,171.36062100017443,171.35249090008438,171.35251820017584,171.35253140004352,None,,165.49402680015191,,,,,,,,,,,,,,sub-098,001,2025-06-25_13h51.59.585,FunctionalLocalizer,2024.2.4,115.53561165268717,1,2,"['1', '2']",2025-06-25 13h53.02.593239 -0400,
stimuli/zèbre.png,zèbre,match,1.7,2.79,1,23,23,0,1,1,0.30735159991309047,None,None,,,0,23,23,23,171.36062100017443,,,,,,,,,,,,,,,,171.3526135000866,171.36062100017443,8.159992285072803e-05,171.8565986000467,171.8566197999753,171.8647759000305,172.35215310007334,172.35313980001956,172.36100000003353,173.3521871000994,173.3442041000817,173.34431090019643,173.3521871000994,174.34403270017356,174.3357940001879,174.3358941001352,174.34403270017356,176.14007279998623,176.13205939996988,176.13219689996913,176.14007279998623,176.14007279998623,176.4486267999746,1,1,0.30735159991309047,None,stimuli/zèbre.png,zèbre,match,1,1,0.30735159991309047,,False,176.44876589998603,176.4487791999709,176.44879150018096,176.45623110001907,179.2442571001593,179.23569720005617,179.23571970011108,179.23573200008832,None,,172.36100000003353,,,,,,,,,,,,,,sub-098,001,2025-06-25_13h51.59.585,FunctionalLocalizer,2024.2.4,115.53561165268717,1,2,"['1', '2']",2025-06-25 13h53.02.593239 -0400,
stimuli/banane.png,face,mismatch,1.42,2.97,2,24,24,0,2,1,0.40844189980998635,None,None,,,0,24,24,24,179.2442571001593,,,,,,,,,,,,,,,,179.23581210011616,179.2442571001593,7.999991066753864e-05,179.7397330000531,179.7397541999817,179.74783360003494,180.23174680001102,180.23269890015945,180.23965580016375,181.23145240009762,181.22321270010434,181.22332800016738,181.23145240009762,182.22301840013824,182.21499630017206,182.2151377000846,182.22301840013824,183.81454610009678,183.8065967001021,183.80671610007994,183.81454610009678,183.81454610009678,184.23286300012842,2,1,0.40844189980998635,None,stimuli/banane.png,face,mismatch,2,1,0.40844189980998635,,False,184.23300980008207,184.23302360018715,184.23303600004874,184.23976420005783,187.20196950016543,187.1942523000762,187.1942753000185,187.19428860000335,None,,180.23965580016375,,,,,,,,,,,,,,sub-098,001,2025-06-25_13h51.59.585,FunctionalLocalizer,2024.2.4,115.53561165268717,1,2,"['1', '2']",2025-06-25 13h53.02.593239 -0400,
stimuli/zèbre.png,ciseau,mismatch,1.12,1.32,2,25,25,0,2,1,0.34572459990158677,None,None,,,0,25,25,25,187.20196950016543,,,,,,,,,,,,,,,,187.19437290006317,187.20196950016543,8.33999365568161e-05,187.69807190005668,187.6980936001055,187.70716230012476,188.1898350000847,188.19082010001875,188.19788960018195,189.18954439996742,189.18150230008177,189.1816319001373,189.18954439996742,190.18549200007692,190.17749420017935,190.17761550005525,190.18549200007692,191.78129930002615,191.7739790000487,191.7742575001903,191.78129930002615,191.78129930002615,192.1314529001247,2,1,0.34572459990158677,None,stimuli/zèbre.png,ciseau,mismatch,2,1,0.34572459990158677,,False,192.13166720001027,192.13168069999665,192.1316929999739,192.13959849998355,193.45585520006716,193.44799000001512,193.44801940000616,193.4480332999956,None,,188.19788960018195,,,,,,,,,,,,,,sub-098,001,2025-06-25_13h51.59.585,FunctionalLocalizer,2024.2.4,115.53561165268717,1,2,"['1', '2']",2025-06-25 13h53.02.593239 -0400,
stimuli/face.png,face,match,1.5,1.39,1,26,26,0,1,1,0.2394408998079598,None,None,,,0,26,26,26,193.45585520006716,,,,,,,,,,,,,,,,193.44811450014822,193.45585520006716,8.089980110526085e-05,193.9538327001501,193.95386100001633,193.96072860015556,194.44419940002263,194.44516320014372,194.45206290017813,195.44774010009132,195.44007920008153,195.4401918000076,195.44774010009132,196.44374690018594,196.43555500009097,196.43567720009014,196.44374690018594,198.0396259999834,198.03147480008192,198.03157970006578,198.0396259999834,198.0396259999834,198.28147090016864,1,1,0.2394408998079598,None,stimuli/face.png,face,match,1,1,0.2394408998079598,,False,198.2815921001602,198.2816055000294,198.28161780000664,198.28968130005524,199.67705489997752,199.6688200000208,199.66884300019592,199.66885640006512,None,,194.45206290017813,,,,,,,,,,,,,,sub-098,001,2025-06-25_13h51.59.585,FunctionalLocalizer,2024.2.4,115.53561165268717,1,2,"['1', '2']",2025-06-25 13h53.02.593239 -0400,
stimuli/face.png,face,match,1.36,2.66,1,27,27,0,1,1,0.2709410998504609,None,None,,,0,27,27,27,199.67705489997752,,,,,,,,,,,,,,,,199.66894640005194,199.67705489997752,9.039998985826969e-05,200.1729177001398,200.1729381000623,200.18120560003445,200.66903740004636,200.6701118000783,200.67694770009257,201.66868530004285,201.65996060008183,201.66008400009014,201.66868530004285,202.66024080011994,202.6523611000739,202.65248160017654,202.66024080011994,203.9520650000777,203.94377850019373,203.9438815000467,203.9520650000777,203.9520650000777,204.2274029001128,1,1,0.2709410998504609,None,stimuli/face.png,face,match,1,1,0.2709410998504609,,False,204.22752620000392,204.22753829997964,204.22755000018515,204.2353866000194,206.8937220000662,206.88538800016977,206.88541180011816,206.88542419997975,None,,,,,,,,,,,,,,,,sub-098,001,2025-06-25_13h51.59.585,FunctionalLocalizer,2024.2.4,115.53561165268717,1,2,"['1', '2']",2025-06-25 13h53.02.593239 -0400,
stimuli/banane.png,ciseau,mismatch,1.8,2.99,2,28,28,0,2,1,0.2464459000620991,None,None,,,0,28,28,28,206.8937220000662,,,,,,,,,,,,,,,,206.88550189998932,206.8937220000662,7.690000347793102e-05,207.38969910005108,207.38974360004067,207.3977806000039,207.8853589000646,207.88637219998054,207.89365560002625,208.8893974001985,208.88104380015284,208.8811665000394,208.8893974001985,209.88525200006552,209.8771667999681,209.87727769999765,209.88525200006552,211.08119749999605,211.07322070002556,211.0733145000413,211.08119749999605,211.08119749999605,211.33203120017424,2,1,0.2464459000620991,None,stimuli/banane.png,ciseau,mismatch,2,1,0.2464459000620991,,False,211.33216360001825,211.3321750999894,211.33218700019643,211.3392953001894,214.32294570002705,214.31470530014485,214.31472990009934,214.31474429997616,None,,207.89365560002625,,,,,,,,,,,,,,sub-098,001,2025-06-25_13h51.59.585,FunctionalLocalizer,2024.2.4,115.53561165268717,1,2,"['1', '2']",2025-06-25 13h53.02.593239 -0400,
stimuli/zèbre.png,face,mismatch,1.23,2.67,2,29,29,0,2,1,0.2211090000346303,None,None,,,0,29,29,29,214.32294570002705,,,,,,,,,,,,,,,,214.31483020004816,214.32294570002705,8.499994874000549e-05,214.82081579999067,214.8208618001081,214.82693340000696,215.31488219997846,215.31584469997324,215.32263520010747,216.31868809997104,216.31035410007462,216.31045280001126,216.31868809997104,217.3141919001937,217.30626150011085,217.30638810014352,217.3141919001937,218.81014010007493,218.80247170012444,218.8026415000204,218.81014010007493,218.81014010007493,219.03567640017718,2,1,0.2211090000346303,None,stimuli/zèbre.png,face,mismatch,2,1,0.2211090000346303,,False,219.03580610011704,219.03581720008515,219.03582910005935,219.0434391000308,221.71051160013303,221.7020164001733,221.70203929999843,221.7020527999848,None,,215.32263520010747,,,,,,,,,,,,,,sub-098,001,2025-06-25_13h51.59.585,FunctionalLocalizer,2024.2.4,115.53561165268717,1,2,"['1', '2']",2025-06-25 13h53.02.593239 -0400,
stimuli/ciseau.png,ciseau,match,1.76,2.62,1,30,30,0,1,1,0.22968540014699101,None,None,,,0,30,30,30,221.71051160013303,,,,,,,,,,,,,,,,221.70213470002636,221.71051160013303,8.17000400274992e-05,222.20580610004254,222.20582530018874,222.21445289999247,222.70204740017653,222.70304350019433,222.71013100002892,223.7060373001732,223.69770600018091,223.69783050008118,223.7060373001732,224.7014337000437,224.69361519999802,224.6937276001554,224.7014337000437,226.49757150001824,226.48922990006395,226.4893241999671,226.49757150001824,226.49757150001824,226.7354896001052,1,1,0.22968540014699101,None,stimuli/ciseau.png,ciseau,match,1,1,0.22968540014699101,,False,226.73566190013662,226.73567380011082,226.73568559996784,226.74348820000887,229.3558913001325,229.348054200178,229.3480770001188,229.3480887999758,None,,222.71013100002892,,,,,,,,,,,,,,sub-098,001,2025-06-25_13h51.59.585,FunctionalLocalizer,2024.2.4,115.53561165268717,1,2,"['1', '2']",2025-06-25 13h53.02.593239 -0400,
stimuli/banane.png,banane,match,1.2,2.62,1,31,31,0,1,1,0.3203962000552565,None,None,,,0,31,31,31,229.3558913001325,,,,,,,,,,,,,,,,229.34816990001127,229.3558913001325,8.009979501366615e-05,229.85191319999285,229.85195860010572,229.86010810011066,230.34800330013968,230.34898020001128,230.35610070009716,231.34723179996945,231.33974480000325,231.3402399001643,231.34723179996945,232.3398206999991,232.33119100006297,232.33128760010004,232.3398206999991,233.83082000003196,233.82271990017034,233.82281420007348,233.83082000003196,233.83082000003196,234.15636540018022,1,1,0.3203962000552565,None,stimuli/banane.png,banane,match,1,1,0.3203962000552565,,False,234.1565068999771,234.15651840018108,234.15653010015376,234.16417640005238,236.77988150017336,236.76881190016866,236.76883359998465,236.76884600007907,None,,230.35610070009716,,,,,,,,,,,,,,sub-098,001,2025-06-25_13h51.59.585,FunctionalLocalizer,2024.2.4,115.53561165268717,1,2,"['1', '2']",2025-06-25 13h53.02.593239 -0400,
stimuli/face.png,banane,mismatch,1.89,2.33,2,32,32,0,2,1,0.2876076998654753,None,None,,,0,32,32,32,236.77988150017336,,,,,,,,,,,,,,,,236.76892630010843,236.77988150017336,8.030002936720848e-05,237.27271679998375,237.27275740006007,237.2809494000394,237.76477630017325,237.76579980016686,237.77235700003803,238.77033520000987,238.76013000006787,238.7602391000837,238.77033520000987,239.76418200018816,239.7561875001993,239.75630610017106,239.76418200018816,241.25617510010488,241.24772340012714,241.24794360017404,241.25617510010488,241.25617510010488,241.5480600001756,2,1,0.2876076998654753,None,stimuli/face.png,banane,mismatch,2,1,0.2876076998654753,,False,241.5482466001995,241.54826269997284,241.5482771000825,241.55584520008415,243.88101380015723,243.8727926001884,243.8728169000242,243.87283030012622,None,,237.77235700003803,,,,,,,,,,,,,,sub-098,001,2025-06-25_13h51.59.585,FunctionalLocalizer,2024.2.4,115.53561165268717,1,2,"['1', '2']",2025-06-25 13h53.02.593239 -0400,
stimuli/zèbre.png,zèbre,match,1.43,2.12,1,33,33,0,1,1,0.28179939999245107,None,None,,,0,33,33,33,243.88101380015723,,,,,,,,,,,,,,,,243.87291380017996,243.88101380015723,8.25999304652214e-05,244.37657970003784,244.37662540003657,244.38550920016132,244.87262660008855,244.87362010008655,244.88071670010686,245.87665860005654,245.86846300004981,245.8686540001072,245.87665860005654,246.87209070008248,246.86463630013168,246.86474650003947,246.87209070008248,248.36583940009587,248.35594270005822,248.3560697999783,248.36583940009587,248.36583940009587,248.6564009001013,1,1,0.28179939999245107,None,stimuli/zèbre.png,zèbre,match,1,1,0.28179939999245107,,False,248.6565543001052,248.65656749997288,248.6565791000612,248.66394550004043,250.7807603001129,250.7727268000599,250.77275080000982,250.7727646001149,None,,244.88071670010686,,,,,,,,,,,,,,sub-098,001,2025-06-25_13h51.59.585,FunctionalLocalizer,2024.2.4,115.53561165268717,1,2,"['1', '2']",2025-06-25 13h53.02.593239 -0400,
stimuli/ciseau.png,ciseau,match,1.92,2.03,1,34,34,0,1,1,0.17804959998466074,None,None,,,0,34,34,34,250.7807603001129,,,,,,,,,,,,,,,,250.77285040006973,250.7807603001129,8.539995178580284e-05,251.27279930002987,251.2728169001639,251.28149860003032,251.7642177999951,251.76520090014674,251.77245430019684,252.9223586001899,252.9140773001127,252.91417450015433,252.9223586001899,253.91377780004404,253.9060168999713,253.90618630009703,253.91377780004404,255.00536489998922,254.9971533000935,254.99728240002878,255.00536489998922,255.00536489998922,255.1898136001546,1,1,0.17804959998466074,None,stimuli/ciseau.png,ciseau,match,1,1,0.17804959998466074,,False,255.18995290016755,255.1899652001448,255.18997770012356,255.19732780009508,257.21828799997456,257.2099694001954,257.20999250002205,257.2100045999978,None,251.28149860003032,251.77245430019684,,,,,,,,,,,,,,sub-098,001,2025-06-25_13h51.59.585,FunctionalLocalizer,2024.2.4,115.53561165268717,1,2,"['1', '2']",2025-06-25 13h53.02.593239 -0400,
stimuli/ciseau.png,zèbre,mismatch,1.94,1.69,2,35,35,0,2,1,0.27940110000781715,None,None,,,0,35,35,35,257.21828799997456,,,,,,,,,,,,,,,,257.21008690004237,257.21828799997456,8.279993198812008e-05,257.7140498000663,257.7140711999964,257.72285920009017,258.20585340005346,258.2069002999924,258.21417120005935,259.2055115001276,259.19779880018905,259.1978899000678,259.2055115001276,260.1970892001409,260.1891479000915,260.18931230017915,260.1970892001409,261.68827070016414,261.68039820017293,261.6805058000609,261.68827070016414,261.68827070016414,261.9730806001462,2,1,0.27940110000781715,None,stimuli/ciseau.png,zèbre,mismatch,2,1,0.27940110000781715,,False,261.9732274999842,261.9732405000832,261.97325250017457,261.98029169999063,263.6637538000941,263.6559405999724,263.65596320014447,263.6559758000076,None,,258.21417120005935,,,,,,,,,,,,,,sub-098,001,2025-06-25_13h51.59.585,FunctionalLocalizer,2024.2.4,115.53561165268717,1,2,"['1', '2']",2025-06-25 13h53.02.593239 -0400,
stimuli/zèbre.png,face,mismatch,1.67,2.73,2,36,36,0,2,1,0.2159216001164168,None,None,,,0,36,36,36,263.6637538000941,,,,,,,,,,,,,,,,263.6560584001709,263.6637538000941,8.260016329586506e-05,264.1597224001307,264.1597438000608,264.1680749000516,264.6514610000886,264.6524941001553,264.66003280016594,265.6554533999879,265.6470802000258,265.6472045001574,265.6554533999879,266.6513211000711,266.6431972000282,266.64328510011546,266.6513211000711,268.5428506000899,268.5348002000246,268.53491290006787,268.5428506000899,268.5428506000899,268.7600225000642,2,1,0.2159216001164168,None,stimuli/zèbre.png,face,mismatch,2,1,0.2159216001164168,,False,268.76016090018675,268.76017380016856,268.7601860000286,268.76783570018597,271.4929303000681,271.4851114000194,271.4851339000743,271.4851468000561,None,,264.66003280016594,,,,,,,,,,,,,,sub-098,001,2025-06-25_13h51.59.585,FunctionalLocalizer,2024.2.4,115.53561165268717,1,2,"['1', '2']",2025-06-25 13h53.02.593239 -0400,
stimuli/face.png,face,match,1.69,1.82,1,37,37,0,1,1,0.3235594998113811,None,None,,,0,37,37,37,271.4929303000681,,,,,,,,,,,,,,,,271.4852293001022,271.4929303000681,8.25999304652214e-05,271.98917840002105,271.98922240012325,271.9971849001013,272.4846878000535,272.48566980008036,272.4933269000612,273.4845408999827,273.4764551001135,273.4766295000445,273.4845408999827,274.476354500046,274.46817500004545,274.46826190012507,274.476354500046,275.97238550009206,275.96447160001844,275.9647007000167,275.97238550009206,275.97238550009206,276.2974893001374,1,1,0.3235594998113811,None,stimuli/face.png,face,match,1,1,0.3235594998113811,,False,276.2976695999969,276.29768090019934,276.2976932001766,276.3053788000252,278.1175722000189,278.1101350001991,278.1101581000257,278.1101706000045,None,,272.4933269000612,,,,,,,,,,,,,,sub-098,001,2025-06-25_13h51.59.585,FunctionalLocalizer,2024.2.4,115.53561165268717,1,2,"['1', '2']",2025-06-25 13h53.02.593239 -0400,
stimuli/banane.png,zèbre,mismatch,1.96,2.05,2,38,38,0,2,1,0.28584780008532107,None,None,,,0,38,38,38,278.1175722000189,,,,,,,,,,,,,,,,278.1102566001937,278.1175722000189,8.520018309354782e-05,278.6138262001332,278.6138468000572,278.6223250001203,279.110140300123,279.1111361000221,279.1178789001424,280.1139169000089,280.1064447001554,280.1065466001164,280.1139169000089,281.1057713001501,281.097187400097,281.0973190001678,281.1057713001501,282.2970900000073,282.28892259998247,282.2890341000166,282.2970900000073,282.2970900000073,282.5852703000419,2,1,0.28584780008532107,None,stimuli/banane.png,zèbre,mismatch,2,1,0.28584780008532107,,False,282.5854140999727,282.58542590006255,282.5854376000352,282.5927159001585,284.63455440010875,284.6266251001507,284.62664930010214,284.62666200008243,None,,279.1178789001424,,,,,,,,,,,,,,sub-098,001,2025-06-25_13h51.59.585,FunctionalLocalizer,2024.2.4,115.53561165268717,1,2,"['1', '2']",2025-06-25 13h53.02.593239 -0400,
stimuli/zèbre.png,zèbre,match,1.71,1.21,1,39,39,0,1,1,0.3175705000758171,None,None,,,0,39,39,39,284.63455440010875,,,,,,,,,,,,,,,,284.62674270011485,284.63455440010875,7.999991066753864e-05,285.1300753999967,285.1300978001673,285.1387497000396,285.622573700035,285.623565700138,285.6324506001547,286.62626220006496,286.6182679000776,286.6183619000949,286.62626220006496,287.62211690004915,287.6137690001633,287.6138619000558,287.62211690004915,289.21778300008737,289.2097130001057,289.20983840012923,289.21778300008737,289.21778300008737,289.5437207000796,1,1,0.3175705000758171,None,stimuli/zèbre.png,zèbre,match,1,1,0.3175705000758171,,False,289.54386000009254,289.54387290007435,289.5438847001642,289.5527678001672,290.75758370012045,290.7469727001153,290.74699560017325,290.74700800003484,None,,285.6324506001547,,,,,,,,,,,,,,sub-098,001,2025-06-25_13h51.59.585,FunctionalLocalizer,2024.2.4,115.53561165268717,1,2,"['1', '2']",2025-06-25 13h53.02.593239 -0400,
stimuli/ciseau.png,face,mismatch,1.67,2.28,2,40,40,0,2,1,0.26079589989967644,None,None,,,0,40,40,40,290.75758370012045,,,,,,,,,,,,,,,,290.74709050008096,290.75758370012045,8.110003545880318e-05,291.25146399997175,291.2515082000755,291.25945040001534,291.7469997999724,291.74801450013183,291.7554856000934,292.74697850015946,292.7389238001779,292.73901930009015,292.74697850015946,293.7427736001555,293.73498619999737,293.73509229999036,293.7427736001555,295.1389866999816,295.1303873001598,295.130491200136,295.1389866999816,295.1389866999816,295.40558340004645,2,1,0.26079589989967644,None,stimuli/ciseau.png,face,mismatch,2,1,0.26079589989967644,,False,295.40572650008835,295.40573940007016,295.4057519000489,295.4132028000895,297.68379490007646,297.67582280002534,297.67584790010005,297.6758604000788,None,,291.7554856000934,,,,,,,,,,,,,,sub-098,001,2025-06-25_13h51.59.585,FunctionalLocalizer,2024.2.4,115.53561165268717,1,2,"['1', '2']",2025-06-25 13h53.02.593239 -0400,
stimuli/ciseau.png,face,mismatch,1.75,2.09,2,41,41,0,2,1,0.3906815000809729,None,None,,,0,41,41,41,297.68379490007646,,,,,,,,,,,,,,,,297.6759415001143,297.68379490007646,8.070003241300583e-05,298.1807915000245,298.18084849999286,298.18840520014055,298.67634180001915,298.6774457001593,298.68435039999895,299.68022660003044,299.67198900016956,299.6720965001732,299.68022660003044,300.67626520013437,300.66794380010106,300.66803130018525,300.67626520013437,302.27213679999113,302.2637259999756,302.2638666999992,302.27213679999113,302.27213679999113,302.6637103999965,2,1,0.3906815000809729,None,stimuli/ciseau.png,face,mismatch,2,1,0.3906815000809729,,False,302.66390689997934,302.6639223000966,302.6639366999734,302.6717467000708,304.7553974001203,304.74699470005,304.747018000111,304.747029799968,None,,,,,,,,,,,,,,,,sub-098,001,2025-06-25_13h51.59.585,FunctionalLocalizer,2024.2.4,115.53561165268717,1,2,"['1', '2']",2025-06-25 13h53.02.593239 -0400,
stimuli/banane.png,banane,match,1.81,2.1,1,42,42,0,1,1,0.3324716000352055,None,None,,,0,42,42,42,304.7553974001203,,,,,,,,,,,,,,,,304.74711540015414,304.7553974001203,8.479994721710682e-05,305.2511993001681,305.25124340015464,305.25939740007743,305.7429283000529,305.74394800001755,305.75070030009374,306.74662380013615,306.738626500126,306.73873340012506,306.74662380013615,307.74263990018517,307.73444909998216,307.73456530016847,307.74263990018517,309.034668300068,309.0261584999971,309.0262688000221,309.034668300068,309.034668300068,309.3682905000169,1,1,0.3324716000352055,None,stimuli/banane.png,banane,match,1,1,0.3324716000352055,,False,309.3684175000526,309.3684284000192,309.36843989999034,309.3758284000214,311.4718129001558,311.463816100033,311.463839400094,311.4638518001884,None,,305.75070030009374,,,,,,,,,,,,,,sub-098,001,2025-06-25_13h51.59.585,FunctionalLocalizer,2024.2.4,115.53561165268717,1,2,"['1', '2']",2025-06-25 13h53.02.593239 -0400,
stimuli/ciseau.png,ciseau,match,1.01,1.12,1,43,43,0,1,1,0.5127569001633674,None,None,,,0,43,43,43,311.4718129001558,,,,,,,,,,,,,,,,311.4639326999895,311.4718129001558,8.010002784430981e-05,311.9677069999743,311.96772970003076,311.9761934999842,312.459426100133,312.4603866999969,312.4674289000686,313.463497400051,313.45516760018654,313.4552919000853,313.463497400051,314.45499010011554,314.44664199999534,314.44675200013444,314.45499010011554,316.04668500018306,316.0384828001261,316.0386413000524,316.04668500018306,316.04668500018306,316.5638619000092,1,1,0.5127569001633674,None,stimuli/ciseau.png,ciseau,match,1,1,0.5127569001633674,,False,316.5639888001606,316.5640004000161,316.5640122999903,316.5719747999683,317.6841911000665,317.6764132999815,317.67643620003946,317.6764488001354,None,,312.4674289000686,,,,,,,,,,,,,,sub-098,001,2025-06-25_13h51.59.585,FunctionalLocalizer,2024.2.4,115.53561165268717,1,2,"['1', '2']",2025-06-25 13h53.02.593239 -0400,
stimuli/banane.png,zèbre,mismatch,1.55,1.49,2,44,44,0,2,1,0.4247167999856174,None,None,,,0,44,44,44,317.6841911000665,,,,,,,,,,,,,,,,317.67653200007044,317.6841911000665,8.270004764199257e-05,318.1802770001814,318.1803002001252,318.1883465000428,318.67175330012105,318.6727301001083,318.6822015000507,319.68040930014104,319.671592600178,319.67179880011827,319.68040930014104,320.67144900001585,320.66373090003617,320.6638268001843,320.67144900001585,322.66346370009705,322.6551789001096,322.65530090010725,322.66346370009705,322.66346370009705,323.0932779000141,2,1,0.4247167999856174,None,stimuli/banane.png,zèbre,mismatch,2,1,0.4247167999856174,,False,323.093415700132,323.0934272999875,323.09343970008194,323.10110129998066,324.5839358000085,324.57598130009137,324.5760047000367,324.576017400017,None,,318.6822015000507,,,,,,,,,,,,,,sub-098,001,2025-06-25_13h51.59.585,FunctionalLocalizer,2024.2.4,115.53561165268717,1,2,"['1', '2']",2025-06-25 13h53.02.593239 -0400,
stimuli/face.png,face,match,1.54,1.81,1,45,45,0,1,1,0.26420219987630844,None,None,,,0,45,45,45,324.5839358000085,,,,,,,,,,,,,,,,324.5760995000601,324.5839358000085,8.150003850460052e-05,325.07974219997413,325.07976370002143,325.0878739000764,325.57216490013525,325.5731586001348,325.57968890015036,326.5711513001006,326.5635179001838,326.5636702000629,326.5711513001006,327.56771120009944,327.5591438000556,327.5592704000883,327.56771120009944,329.15918850013986,329.15080610010773,329.1509128001053,329.15918850013986,329.15918850013986,329.42627120018005,1,1,0.26420219987630844,None,stimuli/face.png,face,match,1,1,0.26420219987630844,,False,329.4265230000019,329.4265350000933,329.4265469000675,329.4342885001097,331.2424155001063,331.23434000019915,331.2343631000258,331.23437620000914,None,,325.57968890015036,,,,,,,,,,,,,,sub-098,001,2025-06-25_13h51.59.585,FunctionalLocalizer,2024.2.4,115.53561165268717,1,2,"['1', '2']",2025-06-25 13h53.02.593239 -0400,
stimuli/zèbre.png,banane,mismatch,1.75,2.12,2,46,46,0,2,1,0.2976283000316471,None,None,,,0,46,46,46,331.2424155001063,,,,,,,,,,,,,,,,331.23446030006744,331.2424155001063,8.300016634166241e-05,331.73796489997767,331.73798279999755,331.74666459998116,332.23053870000876,332.23155939998105,332.2381623000838,333.2340953000821,333.22620440018363,333.2262927000411,333.2340953000821,334.22994790016674,334.22134420019574,334.2216584000271,334.22994790016674,335.6213962000329,335.61345160007477,335.61355590005405,335.6213962000329,335.6213962000329,335.926050900016,2,1,0.2976283000316471,None,stimuli/zèbre.png,banane,mismatch,2,1,0.2976283000316471,,False,335.92619310016744,335.92620600014925,335.92621840001084,335.93402190017514,338.04675050009973,338.0384085001424,338.0384315000847,338.03844410018064,None,,332.2381623000838,,,,,,,,,,,,,,sub-098,001,2025-06-25_13h51.59.585,FunctionalLocalizer,2024.2.4,115.53561165268717,1,2,"['1', '2']",2025-06-25 13h53.02.593239 -0400,
stimuli/face.png,face,match,1.77,2.65,1,47,47,0,1,1,0.4420119000133127,None,None,,,0,47,47,47,338.04675050009973,,,,,,,,,,,,,,,,338.0385263999924,338.04675050009973,8.17000400274992e-05,338.54236400010996,338.54238360002637,338.55089240008965,339.0384437001776,339.03939380007796,339.0463721000124,340.0423109000549,340.034093900118,340.0342050001491,340.0423109000549,341.0340572001878,341.0258822001051,341.0259940000251,341.0340572001878,342.829771600198,342.82147690001875,342.8216799001675,342.829771600198,342.829771600198,343.27230180008337,1,1,0.4420119000133127,None,stimuli/face.png,face,match,1,1,0.4420119000133127,,False,343.27259910013527,343.27261340012774,343.2726265999954,343.2796462001279,345.9210967000108,345.91335070016794,345.9133779001422,345.9133922001347,None,,339.0463721000124,,,,,,,,,,,,,,sub-098,001,2025-06-25_13h51.59.585,FunctionalLocalizer,2024.2.4,115.53561165268717,1,2,"['1', '2']",2025-06-25 13h53.02.593239 -0400,
stimuli/face.png,zèbre,mismatch,1.67,1.58,2,48,48,0,2,1,0.26697200001217425,None,None,,,0,48,48,48,345.9210967000108,,,,,,,,,,,,,,,,345.91385670006275,345.9210967000108,0.00046420004218816757,346.41719659999944,346.41721900017,346.4253350000363,346.90909750014544,346.91008629999124,346.9171327999793,347.90886590001173,347.90107440017164,347.90117530012503,347.90886590001173,348.9003571001813,348.8922749001067,348.892364700092,348.9003571001813,350.0923556999769,350.08395060012117,350.08404480013996,350.0923556999769,350.0923556999769,350.3678149001207,2,1,0.26697200001217425,None,stimuli/face.png,zèbre,mismatch,2,1,0.26697200001217425,,False,350.36803870019503,350.36805180017836,350.36806430015713,350.3756234999746,351.95010330015793,351.9424917001743,351.94289130019024,351.94290730007924,None,,346.9171327999793,,,,,,,,,,,,,,sub-098,001,2025-06-25_13h51.59.585,FunctionalLocalizer,2024.2.4,115.53561165268717,1,2,"['1', '2']",2025-06-25 13h53.02.593239 -0400,
stimuli/zèbre.png,zèbre,match,1.2,2.16,1,49,49,0,1,1,0.24153449991717935,None,None,,,0,49,49,49,351.95010330015793,,,,,,,,,,,,,,,,351.94299320015125,351.95010330015793,8.5099833086133e-05,352.4463373001199,352.446358300047,352.45472070015967,352.94225730001926,352.9432378001511,352.9504715001676,353.94220900000073,353.9340659000445,353.9341752000619,353.94220900000073,354.9338494001422,354.9259342001751,354.9260530001484,354.9338494001422,356.925383400172,356.9167574001476,356.9169409000315,356.925383400172,356.925383400172,357.1680428001564,1,1,0.24153449991717935,None,stimuli/zèbre.png,zèbre,match,1,1,0.24153449991717935,,False,357.16818040004,357.16819190001115,357.1682035000995,357.1753860001918,359.33337830007076,359.3252644999884,359.32528830016963,359.3253003000282,None,,352.9504715001676,,,,,,,,,,,,,,sub-098,001,2025-06-25_13h51.59.585,FunctionalLocalizer,2024.2.4,115.53561165268717,1,2,"['1', '2']",2025-06-25 13h53.02.593239 -0400,
stimuli/banane.png,banane,match,1.13,2.64,1,50,50,0,1,1,0.2824687999673188,None,None,,,0,50,50,50,359.33337830007076,,,,,,,,,,,,,,,,359.3253825001884,359.33337830007076,8.180015720427036e-05,359.8332025001291,359.8332227000501,359.84230979997665,360.32528150011785,360.3263439000584,360.3341340001207,361.325159,361.31762990006246,361.31775080016814,361.325159,362.3212840000633,362.3131213001907,362.31324820010923,362.3212840000633,364.213010400068,364.20466789999045,364.2052088000346,364.213010400068,364.213010400068,364.4969755001366,1,1,0.2824687999673188,None,stimuli/banane.png,banane,match,1,1,0.2824687999673188,,False,364.497114200145,364.4971253001131,364.49713729997166,364.5048390000593,367.13819500012323,367.1295837999787,367.1296064001508,367.1296193001326,None,,360.3341340001207,,,,,,,,,,,,,,sub-098,001,2025-06-25_13h51.59.585,FunctionalLocalizer,2024.2.4,115.53561165268717,1,2,"['1', '2']",2025-06-25 13h53.02.593239 -0400,
stimuli/zèbre.png,face,mismatch,1.32,1.73,2,51,51,0,2,1,0.26653350004926324,None,None,,,0,51,51,51,367.13819500012323,,,,,,,,,,,,,,,,367.12970430008136,367.13819500012323,8.390005677938461e-05,367.63371670013294,367.63373760017566,367.64197310013697,368.12582419998944,368.1268385001458,368.13401699997485,369.1253402000293,369.1175114000216,369.1176807000302,369.1253402000293,370.1171172000468,370.1088434001431,370.1089608001057,370.1171172000468,372.10884350002743,372.1013102000579,372.10147080011666,372.10884350002743,372.10884350002743,372.38028520019725,2,1,0.26653350004926324,None,stimuli/zèbre.png,face,mismatch,2,1,0.26653350004926324,,False,372.3806092001032,372.3806212001946,372.3806332000531,372.3874578999821,374.1087491000071,374.1005178000778,374.1005479001906,374.1005634001922,None,,368.13401699997485,,,,,,,,,,,,,,sub-098,001,2025-06-25_13h51.59.585,FunctionalLocalizer,2024.2.4,115.53561165268717,1,2,"['1', '2']",2025-06-25 13h53.02.593239 -0400,
stimuli/face.png,ciseau,mismatch,1.36,2.22,2,52,52,0,2,1,0.3150720000267029,None,None,,,0,52,52,52,374.1087491000071,,,,,,,,,,,,,,,,374.1006601001136,374.1087491000071,9.549991227686405e-05,374.6043498001527,374.6043780001346,374.61275430000387,375.0976032000035,375.0985975000076,375.1042122000363,376.10089540015906,376.0922557001468,376.0923602001276,376.10089540015906,377.09647590015084,377.08804320008494,377.0881456001662,377.09647590015084,378.38806220004335,378.37960750004277,378.3797024001833,378.38806220004335,378.38806220004335,378.7046787000727,2,1,0.3150720000267029,None,stimuli/face.png,ciseau,mismatch,2,1,0.3150720000267029,,False,378.7048096000217,378.7048214999959,378.7048341999762,378.7127828001976,380.9297349001281,380.9211920001544,380.9212154999841,380.9212280001957,None,,375.1042122000363,,,,,,,,,,,,,,sub-098,001,2025-06-25_13h51.59.585,FunctionalLocalizer,2024.2.4,115.53561165268717,1,2,"['1', '2']",2025-06-25 13h53.02.593239 -0400,
stimuli/face.png,face,match,1.03,2.96,1,53,53,0,1,1,0.23054519994184375,None,None,,,0,53,53,53,380.9297349001281,,,,,,,,,,,,,,,,380.9213097000029,380.9297349001281,8.110003545880318e-05,381.4248936001677,381.42491620010696,381.43385879998095,381.91702689998783,381.9179973001592,381.92518480005674,382.917006800184,382.90867929998785,382.90880069998093,382.917006800184,383.912666000193,383.90442330017686,383.904523300007,383.912666000193,385.0087349000387,385.00046020001173,385.00057870009914,385.0087349000387,385.0087349000387,385.24641400016844,1,1,0.23054519994184375,None,stimuli/face.png,face,match,1,1,0.23054519994184375,,False,385.2465616001282,385.2465741999913,385.24658610019833,385.25434800004587,388.2127843000926,388.2045152001083,388.2045395001769,388.2045519000385,None,,381.92518480005674,,,,,,,,,,,,,,sub-098,001,2025-06-25_13h51.59.585,FunctionalLocalizer,2024.2.4,115.53561165268717,1,2,"['1', '2']",2025-06-25 13h53.02.593239 -0400,
stimuli/banane.png,zèbre,mismatch,1.21,2.52,2,54,54,0,2,1,0.24277609982527792,None,None,,,0,54,54,54,388.2127843000926,,,,,,,,,,,,,,,,388.2046366999857,388.2127843000926,8.38001724332571e-05,388.7086323001422,388.7086545000784,388.7168781000655,389.2003574001137,389.2013370001223,389.2083040000871,390.20443770010024,390.19636160018854,390.19648320018314,390.20443770010024,391.20008790004067,391.19186020013876,391.1919693001546,391.20008790004067,392.9961722001899,392.98769149999134,392.987820800161,392.9961722001899,392.9961722001899,393.2459434000775,2,1,0.24277609982527792,None,stimuli/banane.png,zèbre,mismatch,2,1,0.24277609982527792,,False,393.24608740000986,393.24610029999167,393.2461121000815,393.25417580013163,395.7711398000829,395.7626952000428,395.762720100116,395.7627330000978,None,,389.2083040000871,,,,,,,,,,,,,,sub-098,001,2025-06-25_13h51.59.585,FunctionalLocalizer,2024.2.4,115.53561165268717,1,2,"['1', '2']",2025-06-25 13h53.02.593239 -0400,
stimuli/face.png,face,match,1.68,1.13,1,55,55,0,1,1,0.2933855999726802,None,None,,,0,55,55,55,395.7711398000829,,,,,,,,,,,,,,,,395.76281560002826,395.7711398000829,8.110003545880318e-05,396.26636950019747,396.2663944000378,396.27563320007175,396.7587771001272,396.75973080005497,396.76638890011236,397.7582449000329,397.75016749999486,397.75025580008514,397.7582449000329,398.75010940013453,398.74210670008324,398.74221789999865,398.75010940013453,400.2417201001663,400.23349500005133,400.23369340016507,400.2417201001663,400.2417201001663,400.5378956000786,1,1,0.2933855999726802,None,stimuli/face.png,face,match,1,1,0.2933855999726802,,False,400.53803439997137,400.538047300186,400.5380595000461,400.5458295000717,401.67080850014463,401.6624196001794,401.66244280012324,401.66245550010353,None,,396.76638890011236,,,,,,,,,,,,,,sub-098,001,2025-06-25_13h51.59.585,FunctionalLocalizer,2024.2.4,115.53561165268717,1,2,"['1', '2']",2025-06-25 13h53.02.593239 -0400,
stimuli/ciseau.png,banane,mismatch,1.18,2.59,2,56,56,0,2,1,0.24304710002616048,None,None,,,0,56,56,56,401.67080850014463,,,,,,,,,,,,,,,,401.66253620013595,401.67080850014463,8.059991523623466e-05,402.1681284001097,402.16815000004135,402.17495590006,402.6585367000662,402.6598849000875,402.6670464000199,403.658495800104,403.65041250013746,403.65051469998434,403.658495800104,404.6540835001506,404.6464285000693,404.64655730011873,404.6540835001506,406.24449179996736,406.2406489001587,406.24074780009687,406.24449179996736,406.24449179996736,406.49093980016187,2,1,0.24304710002616048,None,stimuli/ciseau.png,banane,mismatch,2,1,0.24304710002616048,,False,406.49106790008955,406.49108090018854,406.4910931000486,406.4944434000645,409.0736309001222,409.06966660008766,409.06968960002996,409.06970330001786,None,,402.6670464000199,,,,,,,,,,,,,,sub-098,001,2025-06-25_13h51.59.585,FunctionalLocalizer,2024.2.4,115.53561165268717,1,2,"['1', '2']",2025-06-25 13h53.02.593239 -0400,
stimuli/ciseau.png,ciseau,match,1.98,2.46,1,57,57,0,1,1,0.23350249999202788,None,None,,,0,57,57,57,409.0736309001222,,,,,,,,,,,,,,,,409.0697869001888,409.0736309001222,8.159992285072803e-05,409.57508089998737,409.57512470008805,409.58316570008174,410.0708033000119,410.0717842001468,410.079160500085,411.07119210017845,411.06282069999725,411.0629408999812,411.07119210017845,412.0626454001758,412.05441260011867,412.05452540004626,412.0626454001758,413.2537386000622,413.24552160012536,413.2456812001765,413.2537386000622,413.2537386000622,413.4883640999906,1,1,0.23350249999202788,None,stimuli/ciseau.png,ciseau,match,1,1,0.23350249999202788,,False,413.4884673000779,413.48847860004753,413.4884906001389,413.4956760001369,415.94996450003237,415.94193500000983,415.94195780018345,415.9419709001668,None,,,,,,,,,,,,,,,,sub-098,001,2025-06-25_13h51.59.585,FunctionalLocalizer,2024.2.4,115.53561165268717,1,2,"['1', '2']",2025-06-25 13h53.02.593239 -0400,
stimuli/zèbre.png,banane,mismatch,1.33,2.76,2,58,58,0,2,1,0.2627151000779122,None,None,,,0,58,58,58,415.94996450003237,,,,,,,,,,,,,,,,415.9420523000881,415.94996450003237,8.019991219043732e-05,416.44561040005647,416.44563090009615,416.45441730017774,416.9379142001271,416.938868700061,416.9456522001419,417.94177070003934,417.9335062999744,417.9336941000074,417.94177070003934,418.9330605000723,418.92477390007116,418.92490330012515,418.9330605000723,420.2249294000212,420.21658200002275,420.2166952001862,420.2249294000212,420.2249294000212,420.4924869001843,2,1,0.2627151000779122,None,stimuli/zèbre.png,banane,mismatch,2,1,0.2627151000779122,,False,420.492621100042,420.4926330000162,420.49264460010454,420.50008450006135,423.2540605000686,423.2459737001918,423.2459998000413,423.2460134001449,None,,416.9456522001419,,,,,,,,,,,,,,sub-098,001,2025-06-25_13h51.59.585,FunctionalLocalizer,2024.2.4,115.53561165268717,1,2,"['1', '2']",2025-06-25 13h53.02.593239 -0400,
stimuli/ciseau.png,face,mismatch,1.75,2.2,2,59,59,0,2,1,0.23108000005595386,None,None,,,0,59,59,59,423.2540605000686,,,,,,,,,,,,,,,,423.2460998999886,423.2540605000686,8.530006743967533e-05,423.7500316000078,423.75007780012675,423.7583238000516,424.2457665000111,424.2467430001125,424.25416910019703,425.24585620011203,425.2378042000346,425.2379350999836,425.24585620011203,426.23762500006706,426.22908600000665,426.22920610010624,426.23762500006706,427.3285602000542,427.32049690000713,427.32069339999,427.3285602000542,427.3285602000542,427.5667950999923,2,1,0.23108000005595386,None,stimuli/ciseau.png,face,mismatch,2,1,0.23108000005595386,,False,427.5669176999945,427.56692930008285,427.5669413001742,427.57454750011675,429.7651267000474,429.7611116000917,429.76113420003094,429.7611472001299,None,,424.25416910019703,,,,,,,,,,,,,,sub-098,001,2025-06-25_13h51.59.585,FunctionalLocalizer,2024.2.4,115.53561165268717,1,2,"['1', '2']",2025-06-25 13h53.02.593239 -0400,
stimuli/zèbre.png,zèbre,match,1.96,1.86,1,60,60,0,1,1,0.26157850003801286,None,None,,,0,60,60,60,429.7651267000474,,,,,,,,,,,,,,,,429.7612303001806,429.7651267000474,8.290004916489124e-05,430.2614315999672,430.26145300013013,430.2653344999999,430.7486477000639,430.7496433001943,430.7521860001143,431.7482245999854,431.73735950002447,431.7374732000753,431.7482245999854,432.74558370001614,432.737297100015,432.7373941000551,432.74558370001614,434.0415611001663,434.0334684001282,434.0335956001654,434.0415611001663,434.0415611001663,434.30826690001413,1,1,0.26157850003801286,None,stimuli/zèbre.png,zèbre,match,1,1,0.26157850003801286,,False,434.3084034000058,434.3084150000941,434.308427200187,434.31607519998215,436.1704720000271,436.1622870999854,436.1623117001727,436.1623252001591,None,430.2653344999999,430.7521860001143,,,,,,,,,,,,,,sub-098,001,2025-06-25_13h51.59.585,FunctionalLocalizer,2024.2.4,115.53561165268717,1,2,"['1', '2']",2025-06-25 13h53.02.593239 -0400,
stimuli/zèbre.png,zèbre,match,1.31,2.77,1,61,61,0,1,1,0.24499310017563403,None,None,,,0,61,61,61,436.1704720000271,,,,,,,,,,,,,,,,436.16240760008805,436.1704720000271,8.199992589652538e-05,436.66628310014494,436.6663036001846,436.6744862999767,437.1624449000228,437.1634355999995,437.17023120005615,438.1622580999974,438.153928300133,438.15403960016556,438.1622580999974,439.15799430012703,439.14971520006657,439.1499481999781,439.15799430012703,440.15405100001954,440.14561110013165,440.1457411001902,440.15405100001954,440.15405100001954,440.4001792999916,1,1,0.24499310017563403,None,stimuli/zèbre.png,zèbre,match,1,1,0.24499310017563403,,False,440.40031550009735,440.4003280000761,440.40034030005336,440.4078802000731,443.1707425999921,443.16251130006276,443.1625355000142,443.16254810011014,None,,,,,,,,,,,,,,,,sub-098,001,2025-06-25_13h51.59.585,FunctionalLocalizer,2024.2.4,115.53561165268717,1,2,"['1', '2']",2025-06-25 13h53.02.593239 -0400,
stimuli/banane.png,face,mismatch,1.95,2.08,2,62,62,0,2,1,0.25392109993845224,None,None,,,0,62,62,62,443.1707425999921,,,,,,,,,,,,,,,,443.1626316001639,443.1707425999921,8.25000461190939e-05,443.66639090003446,443.6664086000528,443.6749569000676,444.16250610002317,444.16398190008476,444.170738800196,445.16205310006626,445.15428510005586,445.1544061000459,445.16205310006626,446.15409580012783,446.1457693001721,446.1459183001425,446.15409580012783,447.3452326999977,447.3376241000369,447.33776330016553,447.3452326999977,447.3452326999977,447.60416600015014,2,1,0.25392109993845224,None,stimuli/banane.png,face,mismatch,2,1,0.25392109993845224,,False,447.60429790010676,447.60431049996987,447.6043224001769,447.6122958001215,449.68263679998927,449.67496410012245,449.6749878001865,449.6750010000542,None,,444.170738800196,,,,,,,,,,,,,,sub-098,001,2025-06-25_13h51.59.585,FunctionalLocalizer,2024.2.4,115.53561165268717,1,2,"['1', '2']",2025-06-25 13h53.02.593239 -0400,
stimuli/zèbre.png,ciseau,mismatch,1.6,2.44,2,63,63,0,2,1,0.31679000006988645,None,None,,,0,63,63,63,449.68263679998927,,,,,,,,,,,,,,,,449.67508199997246,449.68263679998927,8.139992132782936e-05,450.17889440013096,450.17894020001404,450.18819440016523,450.67099270015024,450.67198960017413,450.6785892001353,451.67449660017155,451.6664431001991,451.66655239998363,451.67449660017155,452.6704361999873,452.6622035000473,452.6624219000805,452.6704361999873,454.66614540014416,454.65800950000994,454.6581230000593,454.66614540014416,454.66614540014416,454.98346780007705,2,1,0.31679000006988645,None,stimuli/zèbre.png,ciseau,mismatch,2,1,0.31679000006988645,,False,454.9836907000281,454.9837021001149,454.9837140000891,454.9917664001696,457.4248273000121,457.41644810000435,457.416471300181,457.41648460016586,None,,450.6785892001353,,,,,,,,,,,,,,sub-098,001,2025-06-25_13h51.59.585,FunctionalLocalizer,2024.2.4,115.53561165268717,1,2,"['1', '2']",2025-06-25 13h53.02.593239 -0400,
stimuli/face.png,face,match,1.69,1.09,1,64,64,0,1,1,0.419964199885726,None,None,,,0,64,64,64,457.4248273000121,,,,,,,,,,,,,,,,457.41656580008566,457.4248273000121,8.060014806687832e-05,457.9202396001201,457.9202595001552,457.9289747001603,458.41210690001026,458.4130822001025,458.4203743999824,459.4163468000479,459.40790680004284,459.40811319998465,459.4163468000479,460.4079046000261,460.399705799995,460.3997992000077,460.4079046000261,461.8037928000558,461.7958647001069,461.79597740015015,461.8037928000558,461.8037928000558,462.2290008000564,1,1,0.419964199885726,None,stimuli/face.png,face,match,1,1,0.419964199885726,,False,462.22920200019144,462.2292147001717,462.22922700014897,462.23700150009245,463.32067050016485,463.31231900001876,463.3123419000767,463.3123539001681,None,,458.4203743999824,,,,,,,,,,,,,,sub-098,001,2025-06-25_13h51.59.585,FunctionalLocalizer,2024.2.4,115.53561165268717,1,2,"['1', '2']",2025-06-25 13h53.02.593239 -0400,
stimuli/face.png,zèbre,mismatch,1.62,1.67,2,65,65,0,2,1,0.42806640011258423,None,None,,,0,65,65,65,463.32067050016485,,,,,,,,,,,,,,,,463.31243699998595,463.32067050016485,8.17000400274992e-05,463.8164621000178,463.8165047999937,463.82358040008694,464.30824739998206,464.3092843000777,464.31612670002505,465.3122286000289,465.3036808001343,465.30378339998424,465.3122286000289,466.30341499997303,466.2954546001274,466.29558520019054,466.30341499997303,468.2992528001778,468.2914152999874,468.29154080012813,468.2992528001778,468.2992528001778,468.7332035000436,2,1,0.42806640011258423,None,stimuli/face.png,zèbre,mismatch,2,1,0.42806640011258423,,False,468.73340390017256,468.73341840016656,468.73343110014684,468.74096309999004,470.40371640003286,470.39546150015667,470.39548510010354,470.39549800008535,None,,464.31612670002505,,,,,,,,,,,,,,sub-098,001,2025-06-25_13h51.59.585,FunctionalLocalizer,2024.2.4,115.53561165268717,1,2,"['1', '2']",2025-06-25 13h53.02.593239 -0400,
stimuli/ciseau.png,zèbre,mismatch,1.33,2.62,2,66,66,0,2,1,0.27241329988464713,None,None,,,0,66,66,66,470.40371640003286,,,,,,,,,,,,,,,,470.3955805001315,470.40371640003286,8.089980110526085e-05,470.89968240004964,470.8997110000346,470.9077998001594,471.3913869999815,471.39237750018947,471.3996290001087,472.395070000086,472.3873706001323,472.3875456000678,472.395070000086,473.3867610001471,473.3788131000474,473.378928600112,473.3867610001471,474.7829275999684,474.7751679001376,474.7752740001306,474.7829275999684,474.7829275999684,475.05826109996997,2,1,0.27241329988464713,None,stimuli/ciseau.png,zèbre,mismatch,2,1,0.27241329988464713,,False,475.0584799000062,475.05849319999106,475.0585062999744,475.0658568001818,477.6824490001891,477.67599770007655,477.67602180014364,477.6760348000098,None,,471.3996290001087,,,,,,,,,,,,,,sub-098,001,2025-06-25_13h51.59.585,FunctionalLocalizer,2024.2.4,115.53561165268717,1,2,"['1', '2']",2025-06-25 13h53.02.593239 -0400,
stimuli/banane.png,banane,match,1.03,1.25,1,67,67,0,1,1,0.3298845000099391,None,None,,,0,67,67,67,477.6824490001891,,,,,,,,,,,,,,,,477.67611650004983,477.6824490001891,8.079991675913334e-05,478.17891230015084,478.1789577000309,478.190512200119,478.6744145001285,478.67538530007005,478.68250160012394,479.674228399992,479.6664150999859,479.6665347001981,479.674228399992,480.6662485001143,480.6576255999971,480.6577141000889,480.6662485001143,481.86173170013353,481.85315690003335,481.8532879999839,481.86173170013353,481.86173170013353,482.1996879000217,1,1,0.3298845000099391,None,stimuli/banane.png,banane,match,1,1,0.3298845000099391,,False,482.19988670013845,482.19989960012026,482.199912100099,482.2072207001038,483.45295210019685,483.4450287001673,483.44505239999853,483.44506549998187,None,,478.68250160012394,,,,,,,,,,,,,,sub-098,001,2025-06-25_13h51.59.585,FunctionalLocalizer,2024.2.4,115.53561165268717,1,2,"['1', '2']",2025-06-25 13h53.02.593239 -0400,
stimuli/banane.png,banane,match,1.46,2.07,1,68,68,0,1,1,0.21039850008673966,None,None,,,0,68,68,68,483.45295210019685,,,,,,,,,,,,,,,,483.44514630013146,483.45295210019685,7.95999076217413e-05,483.94935320015065,483.94937360007316,483.9574321000837,484.4452810001094,484.4462403000798,484.4533189001959,485.4491491999943,485.4410056001507,485.4411127001513,485.4491491999943,486.44478250015527,486.43712190003134,486.4372744001448,486.44478250015527,487.7408295001369,487.7325813001953,487.73270660010166,487.7408295001369,487.7408295001369,487.95820470014587,1,1,0.21039850008673966,None,stimuli/banane.png,banane,match,1,1,0.21039850008673966,,False,487.95832940004766,487.9583404001314,487.95835250010714,487.9656018000096,490.02803080016747,490.0200987001881,490.02012180001475,490.02013469999656,None,,,,,,,,,,,,,,,,sub-098,001,2025-06-25_13h51.59.585,FunctionalLocalizer,2024.2.4,115.53561165268717,1,2,"['1', '2']",2025-06-25 13h53.02.593239 -0400,
stimuli/face.png,zèbre,mismatch,1.79,2.23,2,69,69,0,2,1,0.2879454998765141,None,None,,,0,69,69,69,490.02803080016747,,,,,,,,,,,,,,,,490.0202150000259,490.02803080016747,7.930002175271511e-05,490.524256600067,490.52427739999257,490.53282760013826,491.01595290005207,491.0169407001231,491.025905800052,492.0198999000713,492.011683100136,492.0117915000301,492.0198999000713,493.0157892999705,493.00749520002864,493.0075819999911,493.0157892999705,494.7113420001697,494.70390750002116,494.7040313000325,494.7113420001697,494.7113420001697,495.0035412001889,2,1,0.2879454998765141,None,stimuli/face.png,zèbre,mismatch,2,1,0.2879454998765141,,False,495.00373090012,495.00374409998767,495.0037562001962,495.01149399997666,497.2365416001994,497.2283020999748,497.22832490014844,497.22833770001307,None,,491.025905800052,,,,,,,,,,,,,,sub-098,001,2025-06-25_13h51.59.585,FunctionalLocalizer,2024.2.4,115.53561165268717,1,2,"['1', '2']",2025-06-25 13h53.02.593239 -0400,
stimuli/face.png,face,match,1.66,1.03,1,70,70,0,1,1,0.22771880007348955,None,None,,,0,70,70,70,497.2365416001994,,,,,,,,,,,,,,,,497.2284173001535,497.2365416001994,7.92001374065876e-05,497.73205670015886,497.7320785999764,497.74102440010756,498.22444190015085,498.2254211001564,498.23221560008824,499.2239406001754,499.21583950007334,499.21594889997505,499.2239406001754,500.2160311001353,500.20740110008046,500.2075079001952,500.2160311001353,502.01187080005184,502.0036965999752,502.00420910003595,502.01187080005184,502.01187080005184,502.24100710009225,1,1,0.22771880007348955,None,stimuli/face.png,face,match,1,1,0.22771880007348955,,False,502.24112890008837,502.2411403001752,502.2411522001494,502.2493903001305,503.2779767999891,503.27049490017816,503.2705178000033,503.27053009998053,None,,498.23221560008824,,,,,,,,,,,,,,sub-098,001,2025-06-25_13h51.59.585,FunctionalLocalizer,2024.2.4,115.53561165268717,1,2,"['1', '2']",2025-06-25 13h53.02.593239 -0400,
stimuli/ciseau.png,ciseau,match,1.63,1.72,1,71,71,0,1,1,0.3059797999449074,None,None,,,0,71,71,71,503.2779767999891,,,,,,,,,,,,,,,,503.27061080001295,503.2779767999891,8.010002784430981e-05,503.77407310018316,503.77412430010736,503.78207159996964,504.26571259996854,504.2671678001061,504.27401769999415,505.2697178001981,505.26171790016815,505.26185290003195,505.2697178001981,506.2612463000696,506.2532562999986,506.25337809999473,506.2612463000696,507.2531808000058,507.24489179998636,507.24500440014526,507.2531808000058,507.2531808000058,507.56174600007944,1,1,0.3059797999449074,None,stimuli/ciseau.png,ciseau,match,1,1,0.3059797999449074,,False,507.56186909996904,507.5618804001715,507.5618925001472,507.56981460005045,509.2865254001226,509.27831570012495,509.2783391000703,509.2783520000521,None,,504.27401769999415,,,,,,,,,,,,,,sub-098,001,2025-06-25_13h51.59.585,FunctionalLocalizer,2024.2.4,115.53561165268717,1,2,"['1', '2']",2025-06-25 13h53.02.593239 -0400,
stimuli/zèbre.png,banane,mismatch,1.24,2.28,2,72,72,0,2,1,0.2704763999208808,None,None,,,0,72,72,72,509.2865254001226,,,,,,,,,,,,,,,,509.27843450009823,509.2865254001226,8.200015872716904e-05,509.78250239999034,509.7825245000422,509.79068520013243,510.27831290010363,510.2798774000257,510.2867405000143,511.2782960999757,511.26994560007006,511.2700659001712,511.2782960999757,512.273914600024,512.2656137000304,512.2657419000752,512.273914600024,513.6655046001542,513.6573572000489,513.6575313999783,513.6655046001542,513.6655046001542,513.9411563000176,2,1,0.2704763999208808,None,stimuli/zèbre.png,banane,mismatch,2,1,0.2704763999208808,,False,513.9412802001461,513.9412920000032,513.9413038999774,513.9488393000793,516.2238257001154,516.2157801000867,516.2158045000397,516.21581720002,None,,510.2867405000143,,,,,,,,,,,,,,sub-098,001,2025-06-25_13h51.59.585,FunctionalLocalizer,2024.2.4,115.53561165268717,1,2,"['1', '2']",2025-06-25 13h53.02.593239 -0400,
stimuli/zèbre.png,zèbre,match,1.7,2.52,1,73,73,0,1,1,0.2528773001395166,None,p,13.56256700004451,None,0,73,73,73,516.2238257001154,,,,,,,,,,,,,,,,516.2159018001985,516.2238257001154,8.390005677938461e-05,516.7203968001995,516.7204415001906,516.7278815000318,517.2157080001198,517.2166888001375,517.2239050001372,518.2154898999725,518.2074196999893,518.2075231000781,518.2154898999725,519.2070622001775,519.198899100069,519.1990157000255,519.2070622001775,521.0987043001223,521.0907162001822,521.090855800081,521.0987043001223,521.0987043001223,521.3575272001326,1,1,0.2528773001395166,None,stimuli/zèbre.png,zèbre,match,1,1,0.2528773001395166,,False,521.3577265001368,521.3577386001125,521.3577513000928,521.3654575999826,523.8779552001506,523.8694933000952,523.8695168001577,537.4489410000388,p,,517.2239050001372,,,523.8779552001506,523.8779552001506,13.56256700004451,None,,,,,,,,sub-098,001,2025-06-25_13h51.59.585,FunctionalLocalizer,2024.2.4,115.53561165268717,1,2,"['1', '2']",2025-06-25 13h53.02.593239 -0400,
stimuli/ciseau.png,ciseau,match,1.09,2.99,1,74,74,0,1,1,0.26340509997680783,None,None,,,0,74,74,74,537.4568566000089,,,,,,,,,,,,,,,,537.4490420001093,537.4568566000089,8.79000872373581e-05,537.952867400134,537.9528887001798,537.9610153001267,538.4487632000819,538.4497899000999,538.4569526000414,539.4486631001346,539.4408213000279,539.4409068999812,539.4486631001346,540.4403195001651,540.4323671001475,540.4324829999823,540.4403195001651,542.2317672001664,542.2239945000038,542.2241223000456,542.2317672001664,542.2317672001664,542.4993015001528,1,1,0.26340509997680783,None,stimuli/ciseau.png,ciseau,match,1,1,0.26340509997680783,,False,542.4994491001125,542.4994622999802,542.4994746001903,542.5108197000809,545.4985855000559,545.4903800999746,545.4904042000417,545.4904178001452,None,,538.4569526000414,,,,,,,,,,,,,,sub-098,001,2025-06-25_13h51.59.585,FunctionalLocalizer,2024.2.4,115.53561165268717,1,2,"['1', '2']",2025-06-25 13h53.02.593239 -0400,
stimuli/ciseau.png,zèbre,mismatch,1.39,1.68,2,75,75,0,2,1,0.2538843001239002,None,None,,,0,75,75,75,545.4985855000559,,,,,,,,,,,,,,,,545.4904987001792,545.4985855000559,8.020014502108097e-05,545.9923396999948,545.9923816001974,545.9990128001664,546.4861558000557,546.4871410001069,546.4944609000813,547.4858282001223,547.4781410000287,547.4782676000614,547.4858282001223,548.4777566001285,548.4694183000829,548.4695419999771,548.4777566001285,549.7693797000684,549.7614991001319,549.7616264000535,549.7693797000684,549.7693797000684,550.0281766001135,2,1,0.2538843001239002,None,stimuli/ciseau.png,zèbre,mismatch,2,1,0.2538843001239002,,False,550.0283312001266,550.0283439001068,550.0283564000856,550.0362462999765,551.7109834000003,551.7031982999761,551.7032271001954,551.7032406001817,None,,546.4944609000813,,,,,,,,,,,,,,sub-098,001,2025-06-25_13h51.59.585,FunctionalLocalizer,2024.2.4,115.53561165268717,1,2,"['1', '2']",2025-06-25 13h53.02.593239 -0400,
stimuli/banane.png,banane,match,1.77,1.36,1,76,76,0,1,1,0.25905360002070665,None,None,,,0,76,76,76,551.7109834000003,,,,,,,,,,,,,,,,551.7033220001031,551.7109834000003,8.150003850460052e-05,552.2067383001558,552.2067592001986,552.2151264999993,552.6985226999968,552.6995260000695,552.7065801001154,553.6984457999934,553.6901567999739,553.6902650000993,553.6984457999934,554.6945001999848,554.6858700001612,554.6859602001496,554.6945001999848,555.9896684000269,555.9823515000753,555.982465100009,555.9896684000269,555.9896684000269,556.2570211000275,1,1,0.25905360002070665,None,stimuli/banane.png,banane,match,1,1,0.25905360002070665,,False,556.2571569001302,556.2571696999948,556.2571819000877,556.2651264001615,557.6191788001452,557.6106450001244,557.6106686000712,557.6106820001733,None,,552.7065801001154,,,,,,,,,,,,,,sub-098,001,2025-06-25_13h51.59.585,FunctionalLocalizer,2024.2.4,115.53561165268717,1,2,"['1', '2']",2025-06-25 13h53.02.593239 -0400,
stimuli/zèbre.png,zèbre,match,1.04,1.05,1,77,77,0,1,1,0.32901469990611076,None,None,,,0,77,77,77,557.6191788001452,,,,,,,,,,,,,,,,557.610767000122,557.6191788001452,8.389982394874096e-05,558.1152713000774,558.1152906999923,558.1230439001229,558.6068216001149,558.6077896000352,558.6150778001174,559.606944500003,559.5985146001913,559.5986167001538,559.606944500003,560.6023448000196,560.594379800139,560.5945001000073,560.6023448000196,562.2945489000995,562.2858274001628,562.2859668000601,562.2945489000995,562.2945489000995,562.6323169001844,1,1,0.32901469990611076,None,stimuli/zèbre.png,zèbre,match,1,1,0.32901469990611076,,False,562.6324634000193,562.6324765000027,562.6324889999814,562.639723500004,563.6857295001391,563.6780762001872,563.6780996001326,563.6781119001098,None,,558.6150778001174,,,,,,,,,,,,,,sub-098,001,2025-06-25_13h51.59.585,FunctionalLocalizer,2024.2.4,115.53561165268717,1,2,"['1', '2']",2025-06-25 13h53.02.593239 -0400,
stimuli/banane.png,zèbre,mismatch,1.3,1.98,2,78,78,0,2,1,0.46255689999088645,None,None,,,0,78,78,78,563.6857295001391,,,,,,,,,,,,,,,,563.678196700057,563.6857295001391,8.330005221068859e-05,564.1815933000762,564.1816126001067,564.1902929001953,564.6738248001784,564.6748210000806,564.6816320000216,565.6732607001904,565.6653551000636,565.6655278999824,565.6732607001904,566.6734193000011,566.6609104999807,566.6610301001929,566.6734193000011,567.8651445000432,567.8567962001543,567.8569219000638,567.8651445000432,567.8651445000432,568.332118100021,2,1,0.46255689999088645,None,stimuli/banane.png,zèbre,mismatch,2,1,0.46255689999088645,,False,568.3322354000993,568.3322483000811,568.3322607001755,568.3403676999733,570.3152191000991,570.306899700081,570.3069292001892,570.3069448000751,None,,564.6816320000216,,,,,,,,,,,,,,sub-098,001,2025-06-25_13h51.59.585,FunctionalLocalizer,2024.2.4,115.53561165268717,1,2,"['1', '2']",2025-06-25 13h53.02.593239 -0400,
stimuli/face.png,zèbre,mismatch,1.26,2.49,2,79,79,0,2,1,0.23400010005570948,None,None,,,0,79,79,79,570.3152191000991,,,,,,,,,,,,,,,,570.3070272000041,570.3152191000991,8.080014958977699e-05,570.8150844001211,570.8151062000543,570.8231184000615,571.3066802001558,571.30765660014,571.3145143999718,572.311013000086,572.3025262001902,572.3026356000919,572.311013000086,573.3022104999982,573.2944634000305,573.2945564000402,573.3022104999982,574.4937651001383,574.485459000105,574.4855681001209,574.4937651001383,574.4937651001383,574.7322672000155,2,1,0.23400010005570948,None,stimuli/face.png,zèbre,mismatch,2,1,0.23400010005570948,,False,574.7324275001884,574.7324408001732,574.7324541001581,574.7400964000262,577.2233814999927,577.2151114000008,577.2151401001029,577.2151542000938,None,,571.3145143999718,,,,,,,,,,,,,,sub-098,001,2025-06-25_13h51.59.585,FunctionalLocalizer,2024.2.4,115.53561165268717,1,2,"['1', '2']",2025-06-25 13h53.02.593239 -0400,
stimuli/face.png,face,match,1.21,2.72,1,80,80,0,1,1,0.26937699993140996,None,None,,,0,80,80,80,577.2233814999927,,,,,,,,,,,,,,,,577.2152367001399,577.2233814999927,8.209981024265289e-05,577.7149943001568,577.7150155000854,577.7232654001564,578.2112273001112,578.2121974001639,578.2190894000232,579.2106030001305,579.2026291000657,579.202717800159,579.2106030001305,580.2025737001095,580.1938728999812,580.1939654999878,580.2025737001095,581.9939842000604,581.986041800119,581.9861477001105,581.9939842000604,581.9939842000604,582.2697644999716,1,1,0.26937699993140996,None,stimuli/face.png,face,match,1,1,0.26937699993140996,,False,582.2699035999831,582.2699163001962,582.269928800175,582.2771254000254,584.994037500117,584.9872159000952,584.9872394001577,584.9872520000208,None,577.7232654001564,578.2190894000232,,,,,,,,,,,,,,sub-098,001,2025-06-25_13h51.59.585,FunctionalLocalizer,2024.2.4,115.53561165268717,1,2,"['1', '2']",2025-06-25 13h53.02.593239 -0400,
stimuli/ciseau.png,zèbre,mismatch,1.68,1.32,2,81,81,0,2,1,0.3138337000273168,None,None,,,0,81,81,81,584.994037500117,,,,,,,,,,,,,,,,584.9873443001416,584.994037500117,9.249988943338394e-05,585.490267300047,585.490311600035,585.4980747001246,585.9816317001823,585.9826218001544,585.9896899000742,586.9856577001046,586.9773701999802,586.9776357000228,586.9856577001046,587.9812294000294,587.9732596001122,587.9733494999819,587.9812294000294,589.0776305000763,589.0690760000143,589.069192700088,589.0776305000763,589.0776305000763,589.3943098001182,2,1,0.3138337000273168,None,stimuli/ciseau.png,zèbre,mismatch,2,1,0.3138337000273168,,False,589.3944377000444,589.394449400017,589.3944616999943,589.4023008001968,590.7149369001854,590.7064885001164,590.7065122001804,590.7065245001577,None,,585.9896899000742,,,,,,,,,,,,,,sub-098,001,2025-06-25_13h51.59.585,FunctionalLocalizer,2024.2.4,115.53561165268717,1,2,"['1', '2']",2025-06-25 13h53.02.593239 -0400,
stimuli/zèbre.png,zèbre,match,1.21,2.01,1,82,82,0,1,1,0.24593920004554093,None,None,,,0,82,82,82,590.7149369001854,,,,,,,,,,,,,,,,590.7066085999832,590.7149369001854,8.210004307329655e-05,591.2109092001338,591.2109497999772,591.2190003001597,591.7023381001782,591.7033389999997,591.7105509999674,592.7023412000854,592.6941586001776,592.6942780001555,592.7023412000854,593.6938535000663,593.686106499983,593.6862207001541,593.6938535000663,595.5856064001564,595.5772792000789,595.5773957001511,595.5856064001564,595.5856064001564,595.8402480001096,1,1,0.24593920004554093,None,stimuli/zèbre.png,zèbre,match,1,1,0.24593920004554093,,False,595.8403807000723,595.8403927001636,595.8404052001424,595.8479474000633,597.8520983001217,597.844042000128,597.8440648000687,597.8440777000505,None,,591.7105509999674,,,,,,,,,,,,,,sub-098,001,2025-06-25_13h51.59.585,FunctionalLocalizer,2024.2.4,115.53561165268717,1,2,"['1', '2']",2025-06-25 13h53.02.593239 -0400,
stimuli/banane.png,banane,match,1.03,1.52,1,83,83,0,1,1,0.2924416000023484,None,None,,,0,83,83,83,597.8520983001217,,,,,,,,,,,,,,,,597.8441616999917,597.8520983001217,8.25000461190939e-05,598.3480669001583,598.3480877999682,598.356702900026,598.8399116999935,598.8409194000997,598.8500059000216,599.8438477001619,599.835550900083,599.8357325000688,599.8438477001619,600.8354917999823,600.8273305001203,600.8274481999688,600.8354917999823,601.9314011000097,601.9233870001044,601.9235106999986,601.9314011000097,601.9314011000097,602.2271070000716,1,1,0.2924416000023484,None,stimuli/banane.png,banane,match,1,1,0.2924416000023484,,False,602.22721250006,602.2272247001529,602.2272371000145,602.235165100079,603.7478818001691,603.739639500156,603.7396633001044,603.7396752000786,None,,598.8500059000216,,,,,,,,,,,,,,sub-098,001,2025-06-25_13h51.59.585,FunctionalLocalizer,2024.2.4,115.53561165268717,1,2,"['1', '2']",2025-06-25 13h53.02.593239 -0400,
stimuli/face.png,banane,mismatch,1.05,2.99,2,84,84,0,2,1,0.25174589990638196,None,None,,,0,84,84,84,603.7478818001691,,,,,,,,,,,,,,,,603.7397567001171,603.7478818001691,8.080014958977699e-05,604.2436912001576,604.2437340000179,604.2565648001619,604.7398962001316,604.7409222000279,604.7478200001642,605.739138300065,605.7315895999782,605.7316984001081,605.739138300065,606.7351963999681,606.7271084000822,606.7272359000053,606.7351963999681,608.7313008001074,608.72308850009,608.7232709000818,608.7313008001074,608.7313008001074,608.9913139001001,2,1,0.25174589990638196,None,stimuli/face.png,banane,mismatch,2,1,0.25174589990638196,,False,608.9914397001266,608.9914512999821,608.9914632001892,608.9978440001141,611.9806962001603,611.9728781001177,611.9729025000706,611.9729218001012,None,,604.7478200001642,,,,,,,,,,,,,,sub-098,001,2025-06-25_13h51.59.585,FunctionalLocalizer,2024.2.4,115.53561165268717,1,2,"['1', '2']",2025-06-25 13h53.02.593239 -0400,
stimuli/banane.png,zèbre,mismatch,1.04,1.5,2,85,85,0,2,1,0.22318190010264516,None,None,,,0,85,85,85,611.9806962001603,,,,,,,,,,,,,,,,611.9730052000377,611.9806962001603,8.130003698170185e-05,612.4806608001236,612.4806845001876,612.4852752001025,612.9728340001311,612.9738549999893,612.9813185001258,613.9725177001674,613.9649190001655,613.9650407000445,613.9725177001674,614.9686263999902,614.9606649000198,614.9607814999763,614.9686263999902,616.5603509000503,616.5523392001633,616.552467700094,616.5603509000503,616.5603509000503,616.7857032001484,2,1,0.22318190010264516,None,stimuli/banane.png,zèbre,mismatch,2,1,0.22318190010264516,,False,616.7858488000929,616.7858618001919,616.7858737001661,616.7936778001022,618.2899238001555,618.2809764000122,618.2810005000792,618.2810136000626,None,,612.9813185001258,,,,,,,,,,,,,,sub-098,001,2025-06-25_13h51.59.585,FunctionalLocalizer,2024.2.4,115.53561165268717,1,2,"['1', '2']",2025-06-25 13h53.02.593239 -0400,
stimuli/zèbre.png,zèbre,match,1.49,1.82,1,86,86,0,1,1,0.23579890001565218,None,None,,,0,86,86,86,618.2899238001555,,,,,,,,,,,,,,,,618.2811026000418,618.2899238001555,8.950009942054749e-05,618.7854975999799,618.7855261000805,618.7939548001159,619.2771998001263,619.2781510001514,619.2852621001657,620.2809270001017,620.2733170001302,620.273422600003,620.2809270001017,621.2727689000312,621.2648025001399,621.2649120001588,621.2727689000312,622.7643022001721,622.755987400189,622.7561500000302,622.7643022001721,622.7643022001721,623.0065302001312,1,1,0.23579890001565218,None,stimuli/zèbre.png,zèbre,match,1,1,0.23579890001565218,,False,623.0066770000849,623.0066898001824,623.006701500155,623.0139731001109,624.8313155001961,624.8232140999753,624.8232371001504,624.8232499000151,None,,619.2852621001657,,,,,,,,,,,,,,sub-098,001,2025-06-25_13h51.59.585,FunctionalLocalizer,2024.2.4,115.53561165268717,1,2,"['1', '2']",2025-06-25 13h53.02.593239 -0400,
stimuli/face.png,ciseau,mismatch,1.02,1.88,2,87,87,0,2,1,0.23325829999521375,None,None,,,0,87,87,87,624.8313155001961,,,,,,,,,,,,,,,,624.8233321001753,624.8313155001961,8.130003698170185e-05,625.3273388000671,625.3273589001037,625.3352512000129,625.8205640001688,625.8216440000106,625.8310561000835,626.8270354000852,626.8204485999886,626.8205560999922,626.8270354000852,627.8184422000777,627.8104183000978,627.8105291000102,627.8184422000777,628.8140400999691,628.8063662000932,628.806495900033,628.8140400999691,628.8140400999691,629.0484164000954,2,1,0.23325829999521375,None,stimuli/face.png,ciseau,mismatch,2,1,0.23325829999521375,,False,629.0485321001615,629.048543300014,629.0485549999867,629.0563974000979,630.9312355001457,630.9228848000057,630.9229075000621,630.9229216000531,None,,625.8310561000835,,,,,,,,,,,,,,sub-098,001,2025-06-25_13h51.59.585,FunctionalLocalizer,2024.2.4,115.53561165268717,1,2,"['1', '2']",2025-06-25 13h53.02.593239 -0400,
stimuli/zèbre.png,banane,mismatch,1.21,2.46,2,88,88,0,2,1,0.20100150001235306,None,None,,,0,88,88,88,630.9312355001457,,,,,,,,,,,,,,,,630.9230057999957,630.9312355001457,8.280016481876373e-05,631.4309044000693,631.4309282000177,631.4398739000317,631.9310163999908,631.932010400109,631.9392032001633,632.9352245000191,632.9268908000086,632.9270134000108,632.9352245000191,633.9266095000785,633.9184975000098,633.9186967001297,633.9266095000785,635.91848270013,635.9102565001231,635.9103481001221,635.91848270013,635.91848270013,636.1272354000248,2,1,0.20100150001235306,None,stimuli/zèbre.png,banane,mismatch,2,1,0.20100150001235306,,False,636.1273625001777,636.1273739000317,636.1273863001261,636.1372442001011,638.589611500036,638.5808807001449,638.5809047999792,638.5809177001938,None,,,,,,,,,,,,,,,,sub-098,001,2025-06-25_13h51.59.585,FunctionalLocalizer,2024.2.4,115.53561165268717,1,2,"['1', '2']",2025-06-25 13h53.02.593239 -0400,
stimuli/ciseau.png,ciseau,match,1.38,1.54,1,89,89,0,1,1,0.21124049997888505,None,None,,,0,89,89,89,638.589611500036,,,,,,,,,,,,,,,,638.5810102000833,638.589611500036,9.139999747276306e-05,639.0852461999748,639.0852652001195,639.0935276001692,639.580984500004,639.5820174000692,639.5893551001791,640.5805764000397,640.5729686999694,640.5730928000994,640.5805764000397,641.5726662001107,641.5643665001262,641.5644857001025,641.5726662001107,643.0687071001157,643.0599839000497,643.0601107000839,643.0687071001157,643.0687071001157,643.2854808000848,1,1,0.21124049997888505,None,stimuli/ciseau.png,ciseau,match,1,1,0.21124049997888505,,False,643.2859020000324,643.2859149000142,643.2859269001056,643.2952730001416,644.831081100041,644.8229259001091,644.8229490001686,644.8229616000317,None,,639.5893551001791,,,,,,,,,,,,,,sub-098,001,2025-06-25_13h51.59.585,FunctionalLocalizer,2024.2.4,115.53561165268717,1,2,"['1', '2']",2025-06-25 13h53.02.593239 -0400,
stimuli/zèbre.png,face,mismatch,1.67,1.89,2,90,90,0,2,1,0.6213038000278175,None,None,,,0,90,90,90,644.831081100041,,,,,,,,,,,,,,,,644.8230463999789,644.831081100041,8.430005982518196e-05,645.3268403999973,645.3268602001481,645.3352940999903,645.8226530000102,645.8236407001968,645.8311940999702,646.826542200055,646.8182742001954,646.8184519000351,646.826542200055,647.8225653001573,647.8147217000369,647.8148151000496,647.8225653001573,649.2183261001483,649.2105203999672,649.2106859001797,649.2183261001483,649.2183261001483,649.8435884001665,2,1,0.6213038000278175,None,stimuli/zèbre.png,face,mismatch,2,1,0.6213038000278175,,False,649.8437716001645,649.8437853001524,649.8437978001311,649.8515294000972,651.7390678001102,651.7312160001602,651.7312388999853,651.7312525999732,None,,645.8311940999702,,,,,,,,,,,,,,sub-098,001,2025-06-25_13h51.59.585,FunctionalLocalizer,2024.2.4,115.53561165268717,1,2,"['1', '2']",2025-06-25 13h53.02.593239 -0400,
stimuli/face.png,ciseau,mismatch,1.66,2.41,2,91,91,0,2,1,0.22449470008723438,None,None,,,0,91,91,91,651.7390678001102,,,,,,,,,,,,,,,,651.7313338001259,651.7390678001102,8.099991828203201e-05,652.2350683000404,652.2350891001988,652.243404700188,652.7313153001014,652.732310499996,652.7394428001717,653.7348905000836,653.727187700104,653.727274000179,653.7348905000836,654.7265616999939,654.7183048001025,654.7184205001686,654.7265616999939,656.2225499001797,656.2143540000543,656.2145090000704,656.2225499001797,656.2225499001797,656.4479096001014,2,1,0.22449470008723438,None,stimuli/face.png,ciseau,mismatch,2,1,0.22449470008723438,,False,656.4480530000292,656.4480662001297,656.4480791999958,656.4557629001793,658.8594154000748,658.8510134001262,658.8510367001873,658.8510494001675,None,,652.7394428001717,,,,,,,,,,,,,,sub-098,001,2025-06-25_13h51.59.585,FunctionalLocalizer,2024.2.4,115.53561165268717,1,2,"['1', '2']",2025-06-25 13h53.02.593239 -0400,
stimuli/zèbre.png,zèbre,match,1.07,2.24,1,92,92,0,1,1,0.2202485001180321,None,None,,,0,92,92,92,658.8594154000748,,,,,,,,,,,,,,,,658.851145000197,658.8594154000748,9.680003859102726e-05,659.3561552001629,659.3561774999835,659.3639541000593,659.8475424000062,659.8486695999745,659.8556621000171,660.8513798001222,660.8434156000149,660.8435365001205,660.8513798001222,661.8433038000949,661.8350368000101,661.8351373001933,661.8433038000949,663.1386553000193,663.1311716001946,663.1312888001557,663.1386553000193,663.1386553000193,663.3643232001923,1,1,0.2202485001180321,None,stimuli/zèbre.png,zèbre,match,1,1,0.2202485001180321,,False,663.3644446001854,663.364456300158,663.3644687000196,663.376367200166,665.613872700138,665.605849100044,665.605872000102,665.6058855000883,None,,659.8556621000171,,,,,,,,,,,,,,sub-098,001,2025-06-25_13h51.59.585,FunctionalLocalizer,2024.2.4,115.53561165268717,1,2,"['1', '2']",2025-06-25 13h53.02.593239 -0400,
stimuli/ciseau.png,ciseau,match,1.71,2.64,1,93,93,0,1,1,0.4184069000184536,None,None,,,0,93,93,93,665.613872700138,,,,,,,,,,,,,,,,665.6059677000158,665.613872700138,8.09000339359045e-05,666.1100027000066,666.1100252000615,666.1181453000754,666.6060552999843,666.6070521001238,666.6138949000742,667.6051940000616,667.5971566000953,667.5972653001081,667.6051940000616,668.5973342000507,668.5890118000098,668.589202000061,668.5973342000507,669.8930699001066,669.8850967001636,669.8852015000302,669.8930699001066,669.8930699001066,670.3139953000937,1,1,0.4184069000184536,None,stimuli/ciseau.png,ciseau,match,1,1,0.4184069000184536,,False,670.3142113001086,670.314224800095,670.3142376001924,670.3226679000072,672.9597943001427,672.9512255000882,672.9512535000686,672.9512671001721,None,,,,,,,,,,,,,,,,sub-098,001,2025-06-25_13h51.59.585,FunctionalLocalizer,2024.2.4,115.53561165268717,1,2,"['1', '2']",2025-06-25 13h53.02.593239 -0400,
stimuli/face.png,zèbre,mismatch,1.11,2.74,2,94,94,0,2,1,0.227651699911803,None,None,,,0,94,94,94,672.9597943001427,,,,,,,,,,,,,,,,672.9513517001178,672.9597943001427,8.409982547163963e-05,673.4591322999913,673.4591520000249,673.468072600197,673.9556440000888,673.9566046001855,673.9636239001993,674.9557714001276,674.9474843000062,674.9476009001955,674.9557714001276,675.9511337000877,675.9432471001055,675.9433351000771,675.9511337000877,677.747239400167,677.7396600001957,677.7399313000496,677.747239400167,677.747239400167,677.981148699997,2,1,0.227651699911803,None,stimuli/face.png,zèbre,mismatch,2,1,0.227651699911803,,False,677.9812982000876,677.9813114001881,677.9813238000497,677.988820400089,680.726340000052,680.7183528000023,680.7183759000618,680.7183942000847,None,,,,,,,,,,,,,,,,sub-098,001,2025-06-25_13h51.59.585,FunctionalLocalizer,2024.2.4,115.53561165268717,1,2,"['1', '2']",2025-06-25 13h53.02.593239 -0400,
stimuli/banane.png,zèbre,mismatch,1.03,2.52,2,95,95,0,2,1,0.31342460005544126,None,None,,,0,95,95,95,680.726340000052,,,,,,,,,,,,,,,,680.7184844000731,680.726340000052,8.930009789764881e-05,681.2225436000153,681.2225655000657,681.2313680001535,681.7144252001308,681.7156983001623,681.7226432000753,682.7179362000898,682.7100114000496,682.7101069001947,682.7179362000898,683.7096596001647,683.7010872000828,683.7011981999967,683.7096596001647,685.0054581000004,684.9975460001733,684.9976739000995,685.0054581000004,685.0054581000004,685.3223188000266,2,1,0.31342460005544126,None,stimuli/banane.png,zèbre,mismatch,2,1,0.31342460005544126,,False,685.3224311000668,685.3224421001505,685.3224535000045,685.330728400033,687.8466860000044,687.8390234999824,687.8390475001652,687.8390620001592,None,,681.7226432000753,,,,,,,,,,,,,,sub-098,001,2025-06-25_13h51.59.585,FunctionalLocalizer,2024.2.4,115.53561165268717,1,2,"['1', '2']",2025-06-25 13h53.02.593239 -0400,
stimuli/banane.png,banane,match,1.08,1.65,1,96,96,0,1,1,0.20499580004252493,None,None,,,0,96,96,96,687.8466860000044,,,,,,,,,,,,,,,,687.8391468999907,687.8466860000044,8.420017547905445e-05,688.3430447999854,688.3430663000327,688.3512433001306,688.8391297000926,688.8402258001734,688.8472835000139,689.8431137001608,689.8348664001096,689.8349890001118,689.8431137001608,690.8387889000587,690.8305894001387,690.8307184001897,690.8387889000587,692.63451480004,692.6268639001064,692.6270189001225,692.63451480004,692.63451480004,692.8474283001851,1,1,0.20499580004252493,None,stimuli/banane.png,banane,match,1,1,0.20499580004252493,,False,692.8476056000218,692.8476172001101,692.8476291000843,692.855428900104,694.5011553000659,694.4931915001944,694.4932151001412,694.4932273000013,None,,,,,,,,,,,,,,,,sub-098,001,2025-06-25_13h51.59.585,FunctionalLocalizer,2024.2.4,115.53561165268717,1,2,"['1', '2']",2025-06-25 13h53.02.593239 -0400,
stimuli/zèbre.png,banane,mismatch,1.85,1.21,2,97,97,0,2,1,0.29671779996715486,None,None,,,0,97,97,97,694.5011553000659,,,,,,,,,,,,,,,,694.4933101001661,694.5011553000659,8.210004307329655e-05,695.0005750001874,695.0005958001129,695.009568599984,695.4933321999852,695.494312700117,695.5015322000254,696.4929447001778,696.4849794001784,696.4852078000549,696.4929447001778,697.4847591000143,697.476854900131,697.4769527001772,697.4847591000143,698.776238600025,698.7679961000104,698.7686044999864,698.776238600025,698.776238600025,699.0808228000533,2,1,0.29671779996715486,None,stimuli/zèbre.png,banane,mismatch,2,1,0.29671779996715486,,False,699.080950200092,699.0809622001834,699.0809744000435,699.0886136000045,700.2968920001294,700.2889245999977,700.2889523999766,700.2889662000816,None,,695.5015322000254,,,,,,,,,,,,,,sub-098,001,2025-06-25_13h51.59.585,FunctionalLocalizer,2024.2.4,115.53561165268717,1,2,"['1', '2']",2025-06-25 13h53.02.593239 -0400,
stimuli/ciseau.png,ciseau,match,1.01,1.71,1,98,98,0,1,1,0.23520670016296208,None,None,,,0,98,98,98,700.2968920001294,,,,,,,,,,,,,,,,700.2890532000456,700.2968920001294,8.539995178580284e-05,700.792919700034,700.7929424000904,700.8009221001994,701.2845638999715,701.2855378000531,701.2925871000625,702.2886215001345,702.2803814001381,702.2804684999865,702.2886215001345,703.2844559000805,703.2760990001261,703.2762561000418,703.2844559000805,705.2759696000721,705.2675298000686,705.2676574001089,705.2759696000721,705.2759696000721,705.5144233000465,1,1,0.23520670016296208,None,stimuli/ciseau.png,ciseau,match,1,1,0.23520670016296208,,False,705.5145601001568,705.5145733000245,705.5145854000002,705.5212630000897,707.230573900044,707.2233014001977,707.2233250001445,707.2233382000122,None,,701.2925871000625,,,,,,,,,,,,,,sub-098,001,2025-06-25_13h51.59.585,FunctionalLocalizer,2024.2.4,115.53561165268717,1,2,"['1', '2']",2025-06-25 13h53.02.593239 -0400,
stimuli/zèbre.png,banane,mismatch,1.61,2.6,2,99,99,0,2,1,0.26224800013005733,None,None,,,0,99,99,99,707.230573900044,,,,,,,,,,,,,,,,707.223422100069,707.230573900044,8.260016329586506e-05,707.7260883999988,707.7261349000037,707.7346573001705,708.2181526999921,708.2192497001961,708.2262641000561,709.2176131000742,709.2095125000924,709.2096379001159,709.2176131000742,710.2092437001411,710.2013295001816,710.2014352001715,710.2092437001411,711.2009360000957,711.1933439001441,711.1934740999714,711.2009360000957,711.2009360000957,711.4680936001241,2,1,0.26224800013005733,None,stimuli/zèbre.png,banane,mismatch,2,1,0.26224800013005733,,False,711.4683617001865,711.4683752001729,711.4683866000269,711.4760065001901,714.0663625001907,714.0623910999857,714.0624146000482,714.0624278001487,None,,708.2262641000561,,,,,,,,,,,,,,sub-098,001,2025-06-25_13h51.59.585,FunctionalLocalizer,2024.2.4,115.53561165268717,1,2,"['1', '2']",2025-06-25 13h53.02.593239 -0400,
stimuli/ciseau.png,ciseau,match,1.44,1.37,1,100,100,0,1,1,0.2505443000700325,None,None,,,0,100,100,100,714.0663625001907,,,,,,,,,,,,,,,,714.0625114000868,714.0663625001907,8.300016634166241e-05,714.5632758999709,714.563298900146,714.5721998000517,715.059432100039,715.0604036999866,715.0679438000079,716.0632511000149,716.0553753999993,716.0554842001293,716.0632511000149,717.0552332000807,717.0470344000496,717.047131099971,717.0552332000807,718.1567667000927,718.1427107001655,718.1428233000915,718.1567667000927,718.1567667000927,718.409644600004,1,1,0.2505443000700325,None,stimuli/ciseau.png,ciseau,match,1,1,0.2505443000700325,,False,718.4097856001463,718.4097991001327,718.4098114999942,718.4175949001219,719.7845001001842,719.7762529000174,719.7762770000845,719.7762891000602,None,,715.0679438000079,,,,,,,,,,,,,,sub-098,001,2025-06-25_13h51.59.585,FunctionalLocalizer,2024.2.4,115.53561165268717,1,2,"['1', '2']",2025-06-25 13h53.02.593239 -0400,
