thisN,thisTrialN,thisRepN,pair_name,stim1_img,stim2_img,key_resp.keys,key_resp.rt,key_resp.duration,target_img,probe_img,cue_text,is_match,end_probe_instr.keys,end_probe_instr.rt,end_probe_instr.duration,probe_resp_test.keys,probe_resp_test.rt,probe_resp_test.duration,key_resp_2.keys,key_resp_2.rt,key_resp_2.duration,blocks_loop.thisRepN,blocks_loop.thisTrialN,blocks_loop.thisN,blocks_loop.thisIndex,learn_images.thisRepN,learn_images.thisTrialN,learn_images.thisN,learn_images.thisIndex,probe_loop.thisRepN,probe_loop.thisTrialN,probe_loop.thisN,probe_loop.thisIndex,thisRow.t,notes,%_answer,instructions.started,instructions_main.started,instr_end.started,instructions.stopped,instr_end.keys,instr_end.rt,instr_end.duration,start_eeg.started,eeg_start_text.started,exit_eeg_text.started,start_eeg.stopped,exit_eeg_text.keys,exit_eeg_text.rt,exit_eeg_text.duration,instructions_learning.started,text.started,key_resp.started,instructions_learning.stopped,blocks_loop.key_resp.keys,blocks_loop.key_resp.rt,blocks_loop.key_resp.duration,image_load_2.started,Image_load_text.started,load_images_2.started,image_load_2.stopped,fix_learning.started,fix_learn_cross.started,fix_learn_cross.stopped,fix_learning.stopped,image_learn_1.started,first_of_pair.started,first_of_pair.stopped,image_learn_1.stopped,break_img_learn.started,break_random.started,break_random.stopped,break_img_learn.stopped,image_learn_2.started,second_of_pair.started,second_of_pair.stopped,image_learn_2.stopped,routine_5s_break.started,five_s_break.started,five_s_break.stopped,routine_5s_break.stopped,pair_stim_1,pair_stim_2,random_break_dur,probe_instr.started,probe_instr_text.started,end_probe_instr.started,probe_instr.stopped,blocks_loop.end_probe_instr.keys,blocks_loop.end_probe_instr.rt,blocks_loop.end_probe_instr.duration,image_loader.started,empty_text.started,image_load.started,image_loader.stopped,probe_cue.started,probe_cue_1.started,probe_cue.stopped,probe_imagination.started,imagination_woot.started,imagination_woot.stopped,probe_imagination.stopped,probe_test.started,prob_test_img.started,prob_test_img.stopped,probe_test.stopped,probe_resp.started,probe_resp_test.started,text_4.started,probe_resp.stopped,probe_loop.probe_resp_test.keys,probe_loop.probe_resp_test.rt,probe_loop.probe_resp_test.duration,probe_break.started,text_2.started,text_2.stopped,probe_break.stopped,target_image,probe_image,response_good_bad,response_given,response_rt,good_answer_counter,probe_cue_1.stopped,end_of_block.started,text_3.started,key_resp_2.started,end_of_block.stopped,blocks_loop.key_resp_2.keys,blocks_loop.key_resp_2.rt,blocks_loop.key_resp_2.duration,rest_instr.started,instr_rest_state.started,key_resp_3.started,rest_instr.stopped,key_resp_3.keys,key_resp_3.rt,key_resp_3.duration,rest_state.started,text_5.started,text_5.stopped,rest_state.stopped,end_exp.started,text_end.started,end_exp_1.started,end_exp.stopped,end_exp_1.keys,end_exp_1.rt,end_exp_1.duration,participant,session,date,expName,psychopyVersion,frameRate,sequence_good_key,sequence_bad_key,allowed_keys_list,expStart,
,,,,,,,,,,,,,,,,,,,,,,,,,,,,,,,,,,,,0.0,0.05987360002472997,0.07069809990935028,0.07069809990935028,0.6848255000077188,space,0.6066275001503527,None,,,,,,,,,,,,,,,,,,,,,,,,,,,,,,,,,,,,,,,,,,,,,,,,,,,,,,,,,,,,,,,,,,,,,,,,,,,,,,,,,,,,,,,,,,,,,,,,,,,,,,,,,,,sub-098,001,2025-06-25_14h43.35.278,learn_probe,2024.2.4,240.02630686000353,1,2,"['1', '2']",2025-06-25 14h43.55.799519 -0400,
,,,,,,,,,,,,,,,,,,,,,,,,,,,,,,,,,,,,,,,,,,,,0.6848524999804795,0.6952833998948336,0.6952833998948336,1.004177700029686,space,0.3025714000687003,None,,,,,,,,,,,,,,,,,,,,,,,,,,,,,,,,,,,,,,,,,,,,,,,,,,,,,,,,,,,,,,,,,,,,,,,,,,,,,,,,,,,,,,,,,,,,,,,,,,,,sub-098,001,2025-06-25_14h43.35.278,learn_probe,2024.2.4,240.02630686000353,1,2,"['1', '2']",2025-06-25 14h43.55.799519 -0400,
0,0,0,B_C,stimuli/ciseau.png,stimuli/face.png,space,0.2697588999290019,None,,,,,,,,,,,,,,0,0,0,0,0,0,0,1,,,,,1.3036962999030948,,,,,,,,,,,,,,,,,1.0068317998666316,1.0161045999266207,1.0161045999266207,1.2916455999948084,space,0.2697588999290019,None,1.2943189998622984,1.3036962999030948,0.002652199938893318,1.5998163998592645,1.5998366000130773,1.608159099938348,1.903856699820608,1.8913339998107404,1.8923014998435974,1.903856699820608,3.3992188998963684,3.3911595998797566,3.3912492999807,3.3992188998963684,5.916372200008482,5.90816089999862,5.909110799897462,5.916372200008482,7.412393699865788,7.4039559999946505,7.4040492998901755,7.412393699865788,12.407826100010425,12.399591599823907,stimuli/ciseau.png,stimuli/face.png,2.5222051504861853,,,,,,,,,,,,,,,,,,,,,,,,,,,,,,,,,,,,,,,,,,,,,,,,,,,,,,,,,,,,,,,,,,sub-098,001,2025-06-25_14h43.35.278,learn_probe,2024.2.4,240.02630686000353,1,2,"['1', '2']",2025-06-25 14h43.55.799519 -0400,
1,1,0,C_D,stimuli/face.png,stimuli/banane.png,space,0.2697588999290019,None,,,,,,,,,,,,,,0,0,0,0,0,1,1,2,,,,,12.407826100010425,,,,,,,,,,,,,,,,,,,,,,,,12.399679000023752,12.407826100010425,-0.00037550018168985844,12.720819799927995,12.720863899914548,12.728436299832538,,13.011666900012642,13.012642199872062,13.020570599939674,14.51603850000538,14.508388599846512,14.508484399877489,14.51603850000538,16.478581300005317,16.47029499989003,16.47130259987898,16.478581300005317,17.970465899910778,17.96222719992511,17.962345599895343,17.970465899910778,22.965843999991193,22.95787419984117,stimuli/face.png,stimuli/banane.png,1.9669464651159831,,,,,,,,,,,,,,,,,,,,,,,,,,,,,,,,,,,,,,,,,,,,,,,,,,,,,,,,,,,,,,,,,,sub-098,001,2025-06-25_14h43.35.278,learn_probe,2024.2.4,240.02630686000353,1,2,"['1', '2']",2025-06-25 14h43.55.799519 -0400,
2,2,0,A_B,stimuli/zèbre.png,stimuli/ciseau.png,space,0.2697588999290019,None,,,,,,,,,,,,,,0,0,0,0,0,2,2,0,,,,,22.965843999991193,,,,,,,,,,,,,,,,,,,,,,,,22.957962199812755,22.965843999991193,0.004395700059831142,23.282537499908358,23.28255599993281,23.290975800016895,,23.574342799838632,23.575320599833503,23.5826844999101,25.078820699825883,25.07000289997086,25.070197599940002,25.078820699825883,27.045297799864784,27.036852899938822,27.037856600014493,27.045297799864784,28.540630199946463,28.532858799910173,28.5330550998915,28.540630199946463,33.53243070002645,33.52503789984621,stimuli/zèbre.png,stimuli/ciseau.png,1.972236844970177,,,,,,,,,,,,,,,,,,,,,,,,,,,,,,,,,,,,,,,,,,,,,,,,,,,,,,,,,,,,,,,,,,sub-098,001,2025-06-25_14h43.35.278,learn_probe,2024.2.4,240.02630686000353,1,2,"['1', '2']",2025-06-25 14h43.55.799519 -0400,
3,0,1,A_B,stimuli/zèbre.png,stimuli/ciseau.png,space,0.2697588999290019,None,,,,,,,,,,,,,,0,0,0,0,1,0,3,0,,,,,33.53243070002645,,,,,,,,,,,,,,,,,,,,,,,,33.52513299998827,33.53243070002645,0.0038501000963151455,33.85011859983206,33.850136999972165,33.857593399938196,,34.14083980000578,34.14178549987264,34.14925339980982,35.64121889998205,35.63280859985389,35.63293019984849,35.64121889998205,37.56593639985658,37.557883200002834,37.55886779981665,37.56593639985658,39.057453899877146,39.04935699980706,39.04946090001613,39.057453899877146,44.05348140001297,44.044789699837565,stimuli/zèbre.png,stimuli/ciseau.png,1.9311389638819345,,,,,,,,,,,,,,,,,,,,,,,,,,,,,,,,,,,,,,,,,,,,,,,,,,,,,,,,,,,,,,,,,,sub-098,001,2025-06-25_14h43.35.278,learn_probe,2024.2.4,240.02630686000353,1,2,"['1', '2']",2025-06-25 14h43.55.799519 -0400,
4,1,1,B_C,stimuli/ciseau.png,stimuli/face.png,space,0.2697588999290019,None,,,,,,,,,,,,,,0,0,0,0,1,1,4,1,,,,,44.05348140001297,,,,,,,,,,,,,,,,,,,,,,,,44.04487709980458,44.05348140001297,0.003701400011777878,44.370013299863786,44.37002979987301,44.378643499920145,,44.66169509990141,44.663296999875456,44.66992319980636,46.1616165000014,46.1538248998113,46.1539229999762,46.1616165000014,47.59108849987388,47.58251590002328,47.58350419998169,47.59108849987388,49.08222320000641,49.07431970001198,49.07444050000049,49.08222320000641,54.07824259996414,54.07064859988168,stimuli/ciseau.png,stimuli/face.png,1.4363396668810693,,,,,,,,,,,,,,,,,,,,,,,,,,,,,,,,,,,,,,,,,,,,,,,,,,,,,,,,,,,,,,,,,,sub-098,001,2025-06-25_14h43.35.278,learn_probe,2024.2.4,240.02630686000353,1,2,"['1', '2']",2025-06-25 14h43.55.799519 -0400,
5,2,1,C_D,stimuli/face.png,stimuli/banane.png,space,0.2697588999290019,None,,,,,,,,,,,,,,0,0,0,0,1,2,5,2,,,,,54.07824259996414,,,,,,,,,,,,,,,,,,,,,,,,54.07073839986697,54.07824259996414,0.00428640004247427,54.39433739986271,54.39435359998606,54.40394590003416,,54.68279889994301,54.68382529984228,54.69101929990575,56.18628179980442,56.17844189982861,56.178536699851975,56.18628179980442,58.64890669984743,58.64080539997667,58.64184379996732,58.64890669984743,60.145107300020754,60.13659969996661,60.136716599809006,60.145107300020754,65.1407484000083,65.13254849985242,stimuli/face.png,stimuli/banane.png,2.471775463985322,,,,,,,,,,,,,,,,,,,,,,,,,,,,,,,,,,,,,,,,,,,,,,,,,,,,,,,,,,,,,,,,,,sub-098,001,2025-06-25_14h43.35.278,learn_probe,2024.2.4,240.02630686000353,1,2,"['1', '2']",2025-06-25 14h43.55.799519 -0400,
6,0,2,C_D,stimuli/face.png,stimuli/banane.png,space,0.2697588999290019,None,,,,,,,,,,,,,,0,0,0,0,2,0,6,2,,,,,65.1407484000083,,,,,,,,,,,,,,,,,,,,,,,,65.13264049985446,65.1407484000083,-0.00012820004485547543,65.4487783999648,65.44879789999686,65.45726259984076,65.74872829997912,65.74089419981465,65.74195259995759,65.74872829997912,67.24462959985249,67.2367057998199,67.23682560003363,67.24462959985249,69.33253569994122,69.32435259991325,69.32545449980535,69.33253569994122,70.82411980000325,70.81570309982635,70.81581950001419,70.82411980000325,75.81988899991848,75.81154539994895,stimuli/face.png,stimuli/banane.png,2.094538713573096,,,,,,,,,,,,,,,,,,,,,,,,,,,,,,,,,,,,,,,,,,,,,,,,,,,,,,,,,,,,,,,,,,sub-098,001,2025-06-25_14h43.35.278,learn_probe,2024.2.4,240.02630686000353,1,2,"['1', '2']",2025-06-25 14h43.55.799519 -0400,
7,1,2,A_B,stimuli/zèbre.png,stimuli/ciseau.png,space,0.2697588999290019,None,,,,,,,,,,,,,,0,0,0,0,2,1,7,0,,,,,75.81988899991848,,,,,,,,,,,,,,,,,,,,,,,,75.81163719994947,75.81988899991848,0.0035299998708069324,76.13713639997877,76.13717759982683,76.14479759987444,,76.42798159993254,76.42906209989451,76.4362981999293,77.93200709996745,77.92391539993696,77.92400230001658,77.93200709996745,79.49441229994409,79.4865311998874,79.48753199982457,79.49441229994409,80.98609419981949,80.97807019995525,80.97817449993454,80.98609419981949,85.98238059994765,85.97409999999218,stimuli/zèbre.png,stimuli/ciseau.png,1.5715134010963987,,,,,,,,,,,,,,,,,,,,,,,,,,,,,,,,,,,,,,,,,,,,,,,,,,,,,,,,,,,,,,,,,,sub-098,001,2025-06-25_14h43.35.278,learn_probe,2024.2.4,240.02630686000353,1,2,"['1', '2']",2025-06-25 14h43.55.799519 -0400,
8,2,2,B_C,stimuli/ciseau.png,stimuli/face.png,space,0.2697588999290019,None,,,,,,,,,,,,,,0,0,0,0,2,2,8,1,,,,,85.98238059994765,,,,,,,,,,,,,,,,,,,,,,,,85.97418719995767,85.98238059994765,0.003817800199612975,86.29871209990233,86.2987312998157,86.3070467999205,,86.59016459994018,86.59114569984376,86.6028296998702,88.09482200001366,88.0864509998355,88.08653709990904,88.09482200001366,90.57656960003078,90.56842059991322,90.56944999983534,90.57656960003078,92.07349470001645,92.06551139988005,92.0656889998354,92.07349470001645,97.07325459993444,97.05752609996125,stimuli/ciseau.png,stimuli/face.png,2.4894540743284534,,,,,,,,,,,,,,,,,,,,,,,,,,,,,,,,,,,,,,,,,,,,,,,,,,,,,,,,,,,,,,,,,,sub-098,001,2025-06-25_14h43.35.278,learn_probe,2024.2.4,240.02630686000353,1,2,"['1', '2']",2025-06-25 14h43.55.799519 -0400,
0,0,0,,,,space,0.2697588999290019,None,stimuli/zèbre.png,stimuli/face.png,Qu'est-ce qui vient ensuite ?,non-match,space,0.7718622998800129,None,2,0.4650133999530226,None,,,,0,0,0,0,,,,,0,0,0,8,97.8567321000155,,,,,,,,,,,,,,,,,,,,,,,,,,,,,,,,,,,,,,,,,,,,,,,,,,,97.06612089998089,97.07325459993444,97.07325459993444,97.8487943999935,space,0.7718622998800129,None,97.85091469995677,97.8567321000155,0.0021108000073581934,98.15837930003181,98.1607882999815,98.16948909987696,102.1528538998682,102.15304060000926,102.1613733000122,103.65675610001199,103.64905879995786,103.65006449981593,103.65675610001199,105.65282019996084,105.64477319992147,105.64493960002437,105.65282019996084,105.65282019996084,106.12394229997881,2,0.4650133999530226,None,106.12406279984862,106.13203389989212,109.11386719997972,109.04734239983372,stimuli/zèbre.png,stimuli/face.png,1,2,0.2697588999290019,1,,,,,,,,,,,,,,,,,,,,,,,,,,,sub-098,001,2025-06-25_14h43.35.278,learn_probe,2024.2.4,240.02630686000353,1,2,"['1', '2']",2025-06-25 14h43.55.799519 -0400,
1,1,0,,,,space,0.2697588999290019,None,stimuli/zèbre.png,stimuli/ciseau.png,Qu'est-ce qui vient ensuite ?,match,space,0.7718622998800129,None,1,0.4214168000034988,None,,,,0,0,0,0,,,,,0,1,1,6,109.11386719997972,,,,,,,,,,,,,,,,,,,,,,,,,,,,,,,,,,,,,,,,,,,,,,,,,,,,,,,,,,109.04752869997174,109.11386719997972,0.00011429982259869576,109.35107079986483,109.35198669997044,109.35574879986234,113.34434770001099,113.34446749999188,113.35258059995249,115.32362369983457,115.31176640000194,115.31283359997906,115.32362369983457,117.31929759983905,117.31096729985438,117.31107159983367,117.31929759983905,117.31929759983905,117.74504149984568,1,0.4214168000034988,None,117.74518539989367,117.75430569984019,118.87314439984038,118.86556719988585,stimuli/zèbre.png,stimuli/ciseau.png,1,1,0.2697588999290019,2,113.35258059995249,,,,,,,,,,,,,,,,,,,,,,,,,,sub-098,001,2025-06-25_14h43.35.278,learn_probe,2024.2.4,240.02630686000353,1,2,"['1', '2']",2025-06-25 14h43.55.799519 -0400,
2,2,0,,,,space,0.2697588999290019,None,stimuli/zèbre.png,stimuli/banane.png,Qu'est-ce qui vient ensuite ?,non-match,space,0.7718622998800129,None,2,0.7184162000194192,None,,,,0,0,0,0,,,,,0,2,2,5,118.87314439984038,,,,,,,,,,,,,,,,,,,,,,,,,,,,,,,,,,,,,,,,,,,,,,,,,,,,,,,,,,118.86577939987183,118.87314439984038,0.00010890001431107521,119.17347069992684,119.17436979990453,119.18172249989584,123.16548309987411,123.16560940002091,123.17322489991784,124.89003629982471,124.88206329988316,124.88305759988725,124.89003629982471,126.8861259999685,126.8775372998789,126.87771010003053,126.8861259999685,126.8861259999685,127.6076189999003,2,0.7184162000194192,None,127.60778829990886,127.61469079996459,129.25614359998144,129.24804029986262,stimuli/zèbre.png,stimuli/banane.png,1,2,0.2697588999290019,3,123.17322489991784,,,,,,,,,,,,,,,,,,,,,,,,,,sub-098,001,2025-06-25_14h43.35.278,learn_probe,2024.2.4,240.02630686000353,1,2,"['1', '2']",2025-06-25 14h43.55.799519 -0400,
3,3,0,,,,space,0.2697588999290019,None,stimuli/zèbre.png,stimuli/ciseau.png,Qu'est-ce qui vient ensuite ?,match,space,0.7718622998800129,None,1,0.690702100051567,None,,,,0,0,0,0,,,,,0,3,3,10,129.25614359998144,,,,,,,,,,,,,,,,,,,,,,,,,,,,,,,,,,,,,,,,,,,,,,,,,,,,,,,,,,129.24824689980596,129.25614359998144,0.00011380016803741455,129.5566208998207,129.55749079980887,129.56451809988357,133.55229060002603,133.55239679990336,133.56103229988366,135.39654139988124,135.38961860002019,135.39060329995118,135.39654139988124,137.39373919996433,137.3858604999259,137.3859784998931,137.39373919996433,137.39373919996433,138.0861485998612,1,0.690702100051567,None,138.0863089999184,138.0939695998095,140.39776229998097,140.39003459992819,stimuli/zèbre.png,stimuli/ciseau.png,1,1,0.2697588999290019,4,,,,,,,,,,,,,,,,,,,,,,,,,,,sub-098,001,2025-06-25_14h43.35.278,learn_probe,2024.2.4,240.02630686000353,1,2,"['1', '2']",2025-06-25 14h43.55.799519 -0400,
4,4,0,,,,space,0.2697588999290019,None,stimuli/ciseau.png,stimuli/face.png,Qu'est-ce qui vient ensuite ?,match,space,0.7718622998800129,None,1,0.33539690007455647,None,,,,0,0,0,0,,,,,0,4,4,7,140.39776229998097,,,,,,,,,,,,,,,,,,,,,,,,,,,,,,,,,,,,,,,,,,,,,,,,,,,,,,,,,,140.3902942999266,140.39776229998097,0.0001180002000182867,140.69815730000846,140.69903000001796,140.70636459998786,144.69016679981723,144.69027429982089,144.69828539993614,147.281621000031,147.27332889987156,147.27433229982853,147.281621000031,149.27708739996888,149.26923999981955,149.26935669989325,149.27708739996888,149.27708739996888,149.61899989983067,1,0.33539690007455647,None,149.6191389998421,149.62707359995693,152.54005840001628,152.53140580002218,stimuli/ciseau.png,stimuli/face.png,1,1,0.2697588999290019,5,144.69828539993614,,,,,,,,,,,,,,,,,,,,,,,,,,sub-098,001,2025-06-25_14h43.35.278,learn_probe,2024.2.4,240.02630686000353,1,2,"['1', '2']",2025-06-25 14h43.55.799519 -0400,
5,5,0,,,,space,0.2697588999290019,None,stimuli/ciseau.png,stimuli/zèbre.png,Qu'est-ce qui vient ensuite ?,non-match,space,0.7718622998800129,None,2,0.4736345000565052,None,,,,0,0,0,0,,,,,0,5,5,2,152.54005840001628,,,,,,,,,,,,,,,,,,,,,,,,,,,,,,,,,,,,,,,,,,,,,,,,,,,,,,,,,,152.5316144998651,152.54005840001628,0.00011669984087347984,152.83996669994667,152.84090439998545,152.8481938999612,156.83540649991482,156.83553769998252,156.84368079993874,159.02721580001526,159.01887259981595,159.01986019988544,159.02721580001526,161.01909399987198,161.01093719992787,161.01103559997864,161.01909399987198,161.01909399987198,161.4940044998657,2,0.4736345000565052,None,161.49414399988018,161.5019362999592,164.2604193999432,164.2519090999849,stimuli/ciseau.png,stimuli/zèbre.png,1,2,0.2697588999290019,6,,,,,,,,,,,,,,,,,,,,,,,,,,,sub-098,001,2025-06-25_14h43.35.278,learn_probe,2024.2.4,240.02630686000353,1,2,"['1', '2']",2025-06-25 14h43.55.799519 -0400,
6,6,0,,,,space,0.2697588999290019,None,stimuli/face.png,stimuli/ciseau.png,Qu'est-ce qui vient ensuite ?,non-match,space,0.7718622998800129,None,2,0.39335979986935854,None,,,,0,0,0,0,,,,,0,6,6,11,164.2604193999432,,,,,,,,,,,,,,,,,,,,,,,,,,,,,,,,,,,,,,,,,,,,,,,,,,,,,,,,,,164.25212839990854,164.2604193999432,0.00011579995043575764,164.56070319982246,164.56161989993416,164.56905910000205,168.55631190002896,168.55658979993314,168.5642545998562,169.9723573999945,169.96422449988313,169.96521639986895,169.9723573999945,171.96452409983613,171.95600269990973,171.9561284999363,171.96452409983613,171.96452409983613,172.36488379980437,2,0.39335979986935854,None,172.36501569999382,172.37244999990799,174.8165145998355,174.8062459998764,stimuli/face.png,stimuli/ciseau.png,1,2,0.2697588999290019,7,,,,,,,,,,,,,,,,,,,,,,,,,,,sub-098,001,2025-06-25_14h43.35.278,learn_probe,2024.2.4,240.02630686000353,1,2,"['1', '2']",2025-06-25 14h43.55.799519 -0400,
7,7,0,,,,space,0.2697588999290019,None,stimuli/face.png,stimuli/banane.png,Qu'est-ce qui vient ensuite ?,match,space,0.7718622998800129,None,1,0.9293476999737322,None,,,,0,0,0,0,,,,,0,7,7,1,174.8165145998355,,,,,,,,,,,,,,,,,,,,,,,,,,,,,,,,,,,,,,,,,,,,,,,,,,,,,,,,,,174.8065255000256,174.8165145998355,0.0001237001270055771,175.11446970002726,175.11538630002178,175.12269699992612,179.10612859996036,179.10622339998372,179.11451209988445,181.63912009983324,181.63125899992883,181.63230849988759,181.63912009983324,183.63515039999038,183.62706079985946,183.62718079984188,183.63515039999038,183.63515039999038,184.56950389989652,1,0.9293476999737322,None,184.56970379990526,184.5766354999505,186.7851658000145,186.7768761999905,stimuli/face.png,stimuli/banane.png,1,1,0.2697588999290019,8,179.11451209988445,,,,,,,,,,,,,,,,,,,,,,,,,,sub-098,001,2025-06-25_14h43.35.278,learn_probe,2024.2.4,240.02630686000353,1,2,"['1', '2']",2025-06-25 14h43.55.799519 -0400,
8,8,0,,,,space,0.2697588999290019,None,stimuli/face.png,stimuli/banane.png,Qu'est-ce qui vient ensuite ?,match,space,0.7718622998800129,None,1,0.2856163999531418,None,,,,0,0,0,0,,,,,0,8,8,4,186.7851658000145,,,,,,,,,,,,,,,,,,,,,,,,,,,,,,,,,,,,,,,,,,,,,,,,,,,,,,,,,,186.77709929994307,186.7851658000145,0.00011809985153377056,187.08553659985773,187.0864657999482,187.09378789993934,191.07695339992642,191.07706309994683,191.08505629980937,192.25169710000046,192.24346589995548,192.24452259996906,192.25169710000046,194.24759179982357,194.23933439981192,194.23951759980991,194.24759179982357,194.24759179982357,194.5356304999441,1,0.2856163999531418,None,194.53575779986568,194.543443699833,196.36840669997036,196.360577999847,stimuli/face.png,stimuli/banane.png,1,1,0.2697588999290019,9,191.08505629980937,,,,,,,,,,,,,,,,,,,,,,,,,,sub-098,001,2025-06-25_14h43.35.278,learn_probe,2024.2.4,240.02630686000353,1,2,"['1', '2']",2025-06-25 14h43.55.799519 -0400,
9,9,0,,,,space,0.2697588999290019,None,stimuli/ciseau.png,stimuli/banane.png,Qu'est-ce qui vient ensuite ?,non-match,space,0.7718622998800129,None,1,0.28236030018888414,None,,,,0,0,0,0,,,,,0,9,9,0,196.36840669997036,,,,,,,,,,,,,,,,,,,,,,,,,,,,,,,,,,,,,,,,,,,,,,,,,,,,,,,,,,196.36079189996235,196.36840669997036,0.000107599887996912,196.66835099994205,196.66927349986508,196.67695149988867,200.66432859981433,200.66445229994133,200.67263439996168,202.13888649991713,202.13120529986918,202.13218909990974,202.13888649991713,204.13034349982627,204.12236079992726,204.12286819983274,204.13034349982627,204.13034349982627,204.41911119990982,1,0.28236030018888414,None,204.41925309994258,204.426747799851,206.94371309992857,206.93505460000597,stimuli/ciseau.png,stimuli/banane.png,0,1,0.2697588999290019,9,,,,,,,,,,,,,,,,,,,,,,,,,,,sub-098,001,2025-06-25_14h43.35.278,learn_probe,2024.2.4,240.02630686000353,1,2,"['1', '2']",2025-06-25 14h43.55.799519 -0400,
10,10,0,,,,space,0.2697588999290019,None,stimuli/ciseau.png,stimuli/face.png,Qu'est-ce qui vient ensuite ?,match,space,0.7718622998800129,None,1,0.3553519998677075,None,,,,0,0,0,0,,,,,0,10,10,9,206.94371309992857,,,,,,,,,,,,,,,,,,,,,,,,,,,,,,,,,,,,,,,,,,,,,,,,,,,,,,,,,,206.9352663999889,206.94371309992857,0.0001066999975591898,207.24475459987298,207.24562920001335,207.2515944999177,211.23895769985393,211.23942999984138,211.24735730001703,212.9136206000112,212.90526669984683,212.90628389990889,212.9136206000112,214.9057332999073,214.89748789998703,214.89759760000743,214.9057332999073,214.9057332999073,215.26430639997125,1,0.3553519998677075,None,215.26442669983953,215.27273159986362,218.23476199992,218.22675999999046,stimuli/ciseau.png,stimuli/face.png,1,1,0.2697588999290019,10,,,,,,,,,,,,,,,,,,,,,,,,,,,sub-098,001,2025-06-25_14h43.35.278,learn_probe,2024.2.4,240.02630686000353,1,2,"['1', '2']",2025-06-25 14h43.55.799519 -0400,
11,11,0,,,,space,0.2697588999290019,None,stimuli/face.png,stimuli/zèbre.png,Qu'est-ce qui vient ensuite ?,non-match,space,0.7718622998800129,None,2,0.6905247000977397,None,,,,0,0,0,0,,,,,0,11,11,3,218.23476199992,,,,,,,,,,,,,,,,,,,,,,,,,,,,,,,,,,,,,,,,,,,,,,,,,,,,,,,,,,218.22695569996722,218.23476199992,0.00010930001735687256,218.53489060001448,218.5358332998585,218.54319390002638,222.526438199915,222.52657699980773,222.53487319988199,224.51809869986027,224.50992399989627,224.51090529980138,224.51809869986027,226.51415029983036,226.50565849989653,226.50577389984392,226.51415029983036,226.51415029983036,227.20601199986413,2,0.6905247000977397,None,227.2061429999303,227.21359839988872,228.61828749999404,228.588885899866,stimuli/face.png,stimuli/zèbre.png,1,2,0.2697588999290019,11,222.53487319988199,,,,,,,,,,,,,,,,,,,,,,,,,,sub-098,001,2025-06-25_14h43.35.278,learn_probe,2024.2.4,240.02630686000353,1,2,"['1', '2']",2025-06-25 14h43.55.799519 -0400,
0,0,0,,,,space,0.2697588999290019,None,,,,,space,0.7718622998800129,None,,,,space,1.5619276999495924,None,0,0,0,0,,,,,,,,,,,,,,,,,,,,,,,,,,,,,,,,,,,,,,,,,,,,,,,,,,,,,,,,,,,,,,,,,,,,,,,,,,,,,,,,,,,,,,,,,,,,,,,,,,,,228.60847479989752,228.61828749999404,228.61828749999404,230.18122399994172,space,1.5619276999495924,None,,,,,,,,,,,,,,,,,,,sub-098,001,2025-06-25_14h43.35.278,learn_probe,2024.2.4,240.02630686000353,1,2,"['1', '2']",2025-06-25 14h43.55.799519 -0400,
0,0,0,A_B,stimuli/zèbre.png,stimuli/ciseau.png,space,0.9435361998621374,None,,,,,,,,,,,,,,1,0,1,0,0,0,0,0,,,,,231.14731839997694,,,,,,,,,,,,,,,,,230.1813313998282,230.18920999998227,230.18920999998227,231.13916659983806,space,0.9435361998621374,None,231.1413501999341,231.14731839997694,0.002175699919462204,231.44766009994783,231.44767839997075,231.4555581000168,231.74755079997703,231.73913619993255,231.7401070999913,231.74755079997703,233.24302109982818,233.23466049996205,233.23476969986223,233.24302109982818,234.61790109984577,234.60999239981174,234.61113759991713,234.61790109984577,236.1100142998621,236.10134689998813,236.10145649989136,236.1100142998621,241.09998539998196,241.0959840998985,stimuli/zèbre.png,stimuli/ciseau.png,1.3795050801354098,,,,,,,,,,,,,,,,,,,,,,,,,,,,,,,,,,,,,,,,,,,,,,,,,,,,,,,,,,,,,,,,,,sub-098,001,2025-06-25_14h43.35.278,learn_probe,2024.2.4,240.02630686000353,1,2,"['1', '2']",2025-06-25 14h43.55.799519 -0400,
1,1,0,C_D,stimuli/face.png,stimuli/banane.png,space,0.9435361998621374,None,,,,,,,,,,,,,,1,0,1,0,0,1,1,2,,,,,241.09998539998196,,,,,,,,,,,,,,,,,,,,,,,,241.09607379999943,241.09998539998196,0.002042599953711033,241.41699179983698,241.41700969985686,241.42109319986776,241.71277819992974,241.70448389998637,241.70545180002227,241.71277819992974,243.20961839985102,243.2013818998821,243.20146809983999,243.20961839985102,245.07214159984142,245.06062519992702,245.06164119997993,245.07214159984142,246.5582630999852,246.5554460999556,246.5555549999699,246.5582630999852,251.54573959996924,251.54171399981715,stimuli/face.png,stimuli/banane.png,1.863560738338989,,,,,,,,,,,,,,,,,,,,,,,,,,,,,,,,,,,,,,,,,,,,,,,,,,,,,,,,,,,,,,,,,,sub-098,001,2025-06-25_14h43.35.278,learn_probe,2024.2.4,240.02630686000353,1,2,"['1', '2']",2025-06-25 14h43.55.799519 -0400,
2,2,0,B_C,stimuli/ciseau.png,stimuli/face.png,space,0.9435361998621374,None,,,,,,,,,,,,,,1,0,1,0,0,2,2,1,,,,,251.54573959996924,,,,,,,,,,,,,,,,,,,,,,,,251.54180280002765,251.54951819987036,0.001650799997150898,251.86649109981954,251.86650819983333,251.87088599987328,252.16385250003077,252.1553169998806,252.156472499948,252.16385250003077,253.65954409982078,253.6513017998077,253.651432499988,253.65954409982078,256.03852989990264,256.0304548998829,256.03144179983065,256.03852989990264,257.53449599980377,257.5263455999084,257.52645409991965,257.53449599980377,262.5281754999887,262.5179096998181,stimuli/ciseau.png,stimuli/face.png,2.3825820293077147,,,,,,,,,,,,,,,,,,,,,,,,,,,,,,,,,,,,,,,,,,,,,,,,,,,,,,,,,,,,,,,,,,sub-098,001,2025-06-25_14h43.35.278,learn_probe,2024.2.4,240.02630686000353,1,2,"['1', '2']",2025-06-25 14h43.55.799519 -0400,
3,0,1,A_B,stimuli/zèbre.png,stimuli/ciseau.png,space,0.9435361998621374,None,,,,,,,,,,,,,,1,0,1,0,1,0,3,0,,,,,262.5281754999887,,,,,,,,,,,,,,,,,,,,,,,,262.51800739998,262.5281754999887,0.003844799939543009,262.8427122000139,262.8427299000323,262.851750300033,,263.1346281999722,263.13561049988493,263.1426970998291,264.6343340999447,264.6262244998943,264.6264301999472,264.6343340999447,267.12613429990597,267.11785719986074,267.11889209994115,267.12613429990597,268.6179402999114,268.60961419995874,268.6097299999092,268.6179402999114,273.6135676999111,273.60520290001296,stimuli/zèbre.png,stimuli/ciseau.png,2.4983390152294502,,,,,,,,,,,,,,,,,,,,,,,,,,,,,,,,,,,,,,,,,,,,,,,,,,,,,,,,,,,,,,,,,,sub-098,001,2025-06-25_14h43.35.278,learn_probe,2024.2.4,240.02630686000353,1,2,"['1', '2']",2025-06-25 14h43.55.799519 -0400,
4,1,1,C_D,stimuli/face.png,stimuli/banane.png,space,0.9435361998621374,None,,,,,,,,,,,,,,1,0,1,0,1,1,4,2,,,,,273.6135676999111,,,,,,,,,,,,,,,,,,,,,,,,273.6052937998902,273.6135676999111,0.004103699931874871,273.9346451999154,273.9346650999505,273.94269689987414,,274.22196969995275,274.22300839982927,274.230089899851,275.7261939998716,275.7177863998804,275.7179046999663,275.7261939998716,277.4345509998966,277.4264075998217,277.4273896999657,277.4345509998966,278.9262176998891,278.91838949988596,278.9186031999998,278.9262176998891,283.92181509989314,283.91348149999976,stimuli/face.png,stimuli/banane.png,1.7126925686418883,,,,,,,,,,,,,,,,,,,,,,,,,,,,,,,,,,,,,,,,,,,,,,,,,,,,,,,,,,,,,,,,,,sub-098,001,2025-06-25_14h43.35.278,learn_probe,2024.2.4,240.02630686000353,1,2,"['1', '2']",2025-06-25 14h43.55.799519 -0400,
5,2,1,B_C,stimuli/ciseau.png,stimuli/face.png,space,0.9435361998621374,None,,,,,,,,,,,,,,1,0,1,0,1,2,5,1,,,,,283.92181509989314,,,,,,,,,,,,,,,,,,,,,,,,283.9135718999896,283.92181509989314,0.0032490999437868595,284.2385068000294,284.23852639994584,284.24693649983965,,284.53437759983353,284.5354518999811,284.54284320003353,286.0341042999644,286.02630559983663,286.0264753999654,286.0341042999644,288.66751739988104,288.6554985998664,288.65660889982246,288.66751739988104,290.1632854999043,290.1552921999246,290.15539089986123,290.1632854999043,295.15917250001803,295.1511811998207,stimuli/ciseau.png,stimuli/face.png,2.6322228061541972,,,,,,,,,,,,,,,,,,,,,,,,,,,,,,,,,,,,,,,,,,,,,,,,,,,,,,,,,,,,,,,,,,sub-098,001,2025-06-25_14h43.35.278,learn_probe,2024.2.4,240.02630686000353,1,2,"['1', '2']",2025-06-25 14h43.55.799519 -0400,
6,0,2,A_B,stimuli/zèbre.png,stimuli/ciseau.png,space,0.9435361998621374,None,,,,,,,,,,,,,,1,0,1,0,2,0,6,0,,,,,295.15917250001803,,,,,,,,,,,,,,,,,,,,,,,,295.1512745998334,295.15917250001803,0.003541399957612157,295.4678172999993,295.4678356999066,295.4756222998258,,295.75922599993646,295.76016519987024,295.76762119983323,297.2634332999587,297.25529469992034,297.25540149980225,297.2634332999587,300.15102979983203,300.142267299816,300.14329909998924,300.15102979983203,301.6467823998537,301.6384811999742,301.6386515998747,301.6467823998537,306.6381762998644,306.6302554998547,stimuli/zèbre.png,stimuli/ciseau.png,2.8920051799096704,,,,,,,,,,,,,,,,,,,,,,,,,,,,,,,,,,,,,,,,,,,,,,,,,,,,,,,,,,,,,,,,,,sub-098,001,2025-06-25_14h43.35.278,learn_probe,2024.2.4,240.02630686000353,1,2,"['1', '2']",2025-06-25 14h43.55.799519 -0400,
7,1,2,B_C,stimuli/ciseau.png,stimuli/face.png,space,0.9435361998621374,None,,,,,,,,,,,,,,1,0,1,0,2,1,7,1,,,,,306.6381762998644,,,,,,,,,,,,,,,,,,,,,,,,306.6303599998355,306.6381762998644,0.004396800184622407,306.95415230002254,306.9541735998355,306.9628047000151,,307.24673809995875,307.24770780000836,307.259182699956,,308.7462830999866,308.74639909993857,308.75476219994016,311.61723309988156,311.6092815999873,311.6106403998565,311.61723309988156,313.1091555999592,313.101097199833,313.1011932999827,313.1091555999592,318.10483209998347,318.09663459984586,stimuli/ciseau.png,stimuli/face.png,2.86823753008818,,,,,,,,,,,,,,,,,,,,,,,,,,,,,,,,,,,,,,,,,,,,,,,,,,,,,,,,,,,,,,,,,,sub-098,001,2025-06-25_14h43.35.278,learn_probe,2024.2.4,240.02630686000353,1,2,"['1', '2']",2025-06-25 14h43.55.799519 -0400,
8,2,2,C_D,stimuli/face.png,stimuli/banane.png,space,0.9435361998621374,None,,,,,,,,,,,,,,1,0,1,0,2,2,8,2,,,,,318.10483209998347,,,,,,,,,,,,,,,,,,,,,,,,318.09672879986465,318.10483209998347,0.003303400008007884,318.4216894998681,318.4217326999642,318.42954449984245,,318.7130294998642,318.71398919983767,318.7212813999504,320.21745130000636,320.2086675998289,320.20883859996684,320.21745130000636,322.44242369988933,322.4340578999836,322.43503589998,322.44242369988933,323.9376403999049,323.93014939990826,323.9302447999362,323.9376403999049,328.938512200024,328.9213000999298,stimuli/face.png,stimuli/banane.png,2.2321213621468607,,,,,,,,,,,,,,,,,,,,,,,,,,,,,,,,,,,,,,,,,,,,,,,,,,,,,,,,,,,,,,,,,,sub-098,001,2025-06-25_14h43.35.278,learn_probe,2024.2.4,240.02630686000353,1,2,"['1', '2']",2025-06-25 14h43.55.799519 -0400,
0,0,0,,,,space,0.9435361998621374,None,stimuli/zèbre.png,stimuli/face.png,Qu'est-ce qui vient ensuite ?,non-match,space,4.034210999961942,None,2,0.5632384999189526,None,,,,1,0,1,0,,,,,0,0,0,8,332.99186549987644,,,,,,,,,,,,,,,,,,,,,,,,,,,,,,,,,,,,,,,,,,,,,,,,,,,328.92984959995374,328.938512200024,328.938512200024,332.97998059983365,space,4.034210999961942,None,332.9820055998862,332.99186549987644,0.002012199955061078,333.2923132998403,333.2932086000219,333.3002595999278,337.2837376999669,337.2838671999052,337.29178439988755,338.5503144999966,338.541899099946,338.5428838999942,338.5503144999966,340.5461132999044,340.5380632998422,340.53816709993407,340.5461132999044,340.5461132999044,341.11726829991676,2,0.5632384999189526,None,341.1173993998673,341.1250707998406,343.07953589991666,343.07130800001323,stimuli/zèbre.png,stimuli/face.png,1,2,0.9435361998621374,12,,,,,,,,,,,,,,,,,,,,,,,,,,,sub-098,001,2025-06-25_14h43.35.278,learn_probe,2024.2.4,240.02630686000353,1,2,"['1', '2']",2025-06-25 14h43.55.799519 -0400,
1,1,0,,,,space,0.9435361998621374,None,stimuli/ciseau.png,stimuli/banane.png,Qu'est-ce qui vient ensuite ?,non-match,space,4.034210999961942,None,2,0.8509620998520404,None,,,,1,0,1,0,,,,,0,1,1,0,343.07953589991666,,,,,,,,,,,,,,,,,,,,,,,,,,,,,,,,,,,,,,,,,,,,,,,,,,,,,,,,,,343.0715560999233,343.07953589991666,0.00011139991693198681,343.37977829994634,343.38068169984035,343.3877644999884,347.3715184000321,347.37164109991863,347.37982529983856,349.43940020003356,349.4294722999912,349.43050259980373,349.43940020003356,351.43322360003367,351.4253348999191,351.42545280000195,351.43322360003367,351.43322360003367,352.287919400027,2,0.8509620998520404,None,352.2880635999609,352.2960700998083,354.03749649995007,354.0295231998898,stimuli/ciseau.png,stimuli/banane.png,1,2,0.9435361998621374,13,347.37982529983856,,,,,,,,,,,,,,,,,,,,,,,,,,sub-098,001,2025-06-25_14h43.35.278,learn_probe,2024.2.4,240.02630686000353,1,2,"['1', '2']",2025-06-25 14h43.55.799519 -0400,
2,2,0,,,,space,0.9435361998621374,None,stimuli/ciseau.png,stimuli/face.png,Qu'est-ce qui vient ensuite ?,match,space,4.034210999961942,None,1,0.32033069990575314,None,,,,1,0,1,0,,,,,0,2,2,9,354.03749649995007,,,,,,,,,,,,,,,,,,,,,,,,,,,,,,,,,,,,,,,,,,,,,,,,,,,,,,,,,,354.02972079999745,354.03749649995007,0.00010779988951981068,354.3384749998804,354.33940609986894,354.3458773000166,358.3337602999527,358.33387859980576,358.3418332999572,359.6166168998461,359.60868790000677,359.6096789999865,359.6166168998461,361.61260819993913,361.60451489989646,361.6046515998896,361.61260819993913,361.61260819993913,361.93796429992653,1,0.32033069990575314,None,361.9381128998939,361.9457987998612,364.7461894999724,364.7377108000219,stimuli/ciseau.png,stimuli/face.png,1,1,0.9435361998621374,14,,,,,,,,,,,,,,,,,,,,,,,,,,,sub-098,001,2025-06-25_14h43.35.278,learn_probe,2024.2.4,240.02630686000353,1,2,"['1', '2']",2025-06-25 14h43.55.799519 -0400,
3,3,0,,,,space,0.9435361998621374,None,stimuli/zèbre.png,stimuli/ciseau.png,Qu'est-ce qui vient ensuite ?,match,space,4.034210999961942,None,1,0.9948873000685126,None,,,,1,0,1,0,,,,,0,3,3,6,364.7461894999724,,,,,,,,,,,,,,,,,,,,,,,,,,,,,,,,,,,,,,,,,,,,,,,,,,,,,,,,,,364.73790750000626,364.7461894999724,0.0001097000204026699,365.04619769984856,365.04794149985537,365.05425399984233,369.03784989984706,369.0380267999135,369.04577399999835,371.6499147999566,371.64208459993824,371.6430538999848,371.6499147999566,373.64199919998646,373.63369229994714,373.63386539998464,373.64199919998646,373.64199919998646,374.6379229000304,1,0.9948873000685126,None,374.63804629980586,374.64576109987684,376.9206846000161,376.9130217998754,stimuli/zèbre.png,stimuli/ciseau.png,1,1,0.9435361998621374,15,369.04577399999835,,,,,,,,,,,,,,,,,,,,,,,,,,sub-098,001,2025-06-25_14h43.35.278,learn_probe,2024.2.4,240.02630686000353,1,2,"['1', '2']",2025-06-25 14h43.55.799519 -0400,
4,4,0,,,,space,0.9435361998621374,None,stimuli/face.png,stimuli/zèbre.png,Qu'est-ce qui vient ensuite ?,non-match,space,4.034210999961942,None,2,0.3953466999810189,None,,,,1,0,1,0,,,,,0,4,4,3,376.9206846000161,,,,,,,,,,,,,,,,,,,,,,,,,,,,,,,,,,,,,,,,,,,,,,,,,,,,,,,,,,376.9132322999649,376.9206846000161,0.00011519994586706161,377.2207972998731,377.2217270999681,377.2288464999292,381.2164834998548,381.2165977000259,381.22521850001067,384.1456041999627,384.13724569999613,384.13842179998755,384.1456041999627,386.1373228998855,386.12919759983197,386.12930299993604,386.1373228998855,386.1373228998855,386.533271699911,2,0.3953466999810189,None,386.5333804998081,386.5418245999608,388.1873878999613,388.17883949982934,stimuli/face.png,stimuli/zèbre.png,1,2,0.9435361998621374,16,,,,,,,,,,,,,,,,,,,,,,,,,,,sub-098,001,2025-06-25_14h43.35.278,learn_probe,2024.2.4,240.02630686000353,1,2,"['1', '2']",2025-06-25 14h43.55.799519 -0400,
5,5,0,,,,space,0.9435361998621374,None,stimuli/face.png,stimuli/banane.png,Qu'est-ce qui vient ensuite ?,match,space,4.034210999961942,None,1,0.4601873999927193,None,,,,1,0,1,0,,,,,0,5,5,1,388.1873878999613,,,,,,,,,,,,,,,,,,,,,,,,,,,,,,,,,,,,,,,,,,,,,,,,,,,,,,,,,,388.1791471999604,388.1873878999613,0.00011019990779459476,388.48692749999464,388.48818570002913,388.4960090999957,392.4834916999098,392.4837062000297,392.4910635999404,394.0228338998277,394.01241429988295,394.01342489989474,394.0228338998277,396.01662899996154,396.0086209999863,396.0087269998621,396.01662899996154,396.01662899996154,396.48342920001596,1,0.4601873999927193,None,396.48356890003197,396.490862299921,398.90368089987896,398.89574349997565,stimuli/face.png,stimuli/banane.png,1,1,0.9435361998621374,17,,,,,,,,,,,,,,,,,,,,,,,,,,,sub-098,001,2025-06-25_14h43.35.278,learn_probe,2024.2.4,240.02630686000353,1,2,"['1', '2']",2025-06-25 14h43.55.799519 -0400,
6,6,0,,,,space,0.9435361998621374,None,stimuli/ciseau.png,stimuli/zèbre.png,Qu'est-ce qui vient ensuite ?,non-match,space,4.034210999961942,None,2,0.5543823998887092,None,,,,1,0,1,0,,,,,0,6,6,2,398.90368089987896,,,,,,,,,,,,,,,,,,,,,,,,,,,,,,,,,,,,,,,,,,,,,,,,,,,,,,,,,,398.8959499998018,398.90368089987896,0.0001150001771748066,399.2042920999229,399.2063620998524,399.21637339983135,403.199804399861,403.20003049983643,403.20794929983094,404.95971969980747,404.94983999989927,404.9509236998856,404.95971969980747,406.95403579995036,406.94561239983886,406.9457431000192,406.95403579995036,406.95403579995036,407.5126510998234,2,0.5543823998887092,None,407.51279539987445,407.5206625999417,410.445401399862,410.43703129980713,stimuli/ciseau.png,stimuli/zèbre.png,1,2,0.9435361998621374,18,,,,,,,,,,,,,,,,,,,,,,,,,,,sub-098,001,2025-06-25_14h43.35.278,learn_probe,2024.2.4,240.02630686000353,1,2,"['1', '2']",2025-06-25 14h43.55.799519 -0400,
7,7,0,,,,space,0.9435361998621374,None,stimuli/face.png,stimuli/banane.png,Qu'est-ce qui vient ensuite ?,match,space,4.034210999961942,None,1,0.24080900009721518,None,,,,1,0,1,0,,,,,0,7,7,4,410.445401399862,,,,,,,,,,,,,,,,,,,,,,,,,,,,,,,,,,,,,,,,,,,,,,,,,,,,,,,,,,410.43722169985995,410.445401399862,0.00011259992606937885,410.74563999986276,410.74655989999883,410.7537723998539,414.73733329982497,414.73748419992626,414.74540150002576,416.3328929999843,416.324831899954,416.3258216998074,416.3328929999843,418.3243976000231,418.3163914999459,418.3165665999986,418.3243976000231,418.3243976000231,418.5671057999134,1,0.24080900009721518,None,418.5672396000009,418.5765715998132,419.7956113999244,419.78760159993544,stimuli/face.png,stimuli/banane.png,1,1,0.9435361998621374,19,,,,,,,,,,,,,,,,,,,,,,,,,,,sub-098,001,2025-06-25_14h43.35.278,learn_probe,2024.2.4,240.02630686000353,1,2,"['1', '2']",2025-06-25 14h43.55.799519 -0400,
8,8,0,,,,space,0.9435361998621374,None,stimuli/face.png,stimuli/ciseau.png,Qu'est-ce qui vient ensuite ?,non-match,space,4.034210999961942,None,2,0.4683737999293953,None,,,,1,0,1,0,,,,,0,8,8,11,419.7956113999244,,,,,,,,,,,,,,,,,,,,,,,,,,,,,,,,,,,,,,,,,,,,,,,,,,,,,,,,,,419.78779119998217,419.7956113999244,0.00011389981955289841,420.0994245999027,420.10035459999926,420.1077299998142,424.09136589989066,424.0915768998675,424.09943329985254,426.2161959998775,426.20818239985965,426.20915679982863,426.2161959998775,428.2080975000281,428.1998248999007,428.2000000998378,428.2080975000281,428.2080975000281,428.67942599998787,2,0.4683737999293953,None,428.6795639998745,428.6867876998149,430.0865697998088,430.0789626999758,stimuli/face.png,stimuli/ciseau.png,1,2,0.9435361998621374,20,,,,,,,,,,,,,,,,,,,,,,,,,,,sub-098,001,2025-06-25_14h43.35.278,learn_probe,2024.2.4,240.02630686000353,1,2,"['1', '2']",2025-06-25 14h43.55.799519 -0400,
9,9,0,,,,space,0.9435361998621374,None,stimuli/zèbre.png,stimuli/banane.png,Qu'est-ce qui vient ensuite ?,non-match,space,4.034210999961942,None,2,0.2962661001365632,None,,,,1,0,1,0,,,,,0,9,9,5,430.0865697998088,,,,,,,,,,,,,,,,,,,,,,,,,,,,,,,,,,,,,,,,,,,,,,,,,,,,,,,,,,430.07918310002424,430.0865697998088,0.00011690007522702217,430.39103199983947,430.3920032000169,430.3996886999812,434.38254369981587,434.38274769997224,434.39102999982424,436.34120939997956,436.3327599999029,436.3337615998462,436.34120939997956,438.3327258999925,438.3243952000048,438.3244923998136,438.3327258999925,438.3327258999925,438.63305479986593,2,0.2962661001365632,None,438.6331925999839,438.64086849987507,440.78691309993155,440.7788781998679,stimuli/zèbre.png,stimuli/banane.png,1,2,0.9435361998621374,21,,,,,,,,,,,,,,,,,,,,,,,,,,,sub-098,001,2025-06-25_14h43.35.278,learn_probe,2024.2.4,240.02630686000353,1,2,"['1', '2']",2025-06-25 14h43.55.799519 -0400,
10,10,0,,,,space,0.9435361998621374,None,stimuli/zèbre.png,stimuli/ciseau.png,Qu'est-ce qui vient ensuite ?,match,space,4.034210999961942,None,1,0.3059410999994725,None,,,,1,0,1,0,,,,,0,10,10,10,440.78691309993155,,,,,,,,,,,,,,,,,,,,,,,,,,,,,,,,,,,,,,,,,,,,,,,,,,,,,,,,,,440.77956759999506,440.78691309993155,0.00012600002810359,441.0910254998598,441.09193949983455,441.09962220001034,445.0864732998889,445.08664519991726,445.0946892998181,447.1034232999664,447.0824674000032,447.0834544999525,447.1034232999664,,449.08264869987033,449.0827524999622,449.0908902999945,449.0908902999945,449.3996901998762,1,0.3059410999994725,None,449.39982329984196,449.4074428998865,451.4325317000039,451.42440589983016,stimuli/zèbre.png,stimuli/ciseau.png,1,1,0.9435361998621374,22,,,,,,,,,,,,,,,,,,,,,,,,,,,sub-098,001,2025-06-25_14h43.35.278,learn_probe,2024.2.4,240.02630686000353,1,2,"['1', '2']",2025-06-25 14h43.55.799519 -0400,
11,11,0,,,,space,0.9435361998621374,None,stimuli/ciseau.png,stimuli/face.png,Qu'est-ce qui vient ensuite ?,match,space,4.034210999961942,None,1,0.2752704001031816,None,,,,1,0,1,0,,,,,0,11,11,7,451.4325317000039,,,,,,,,,,,,,,,,,,,,,,,,,,,,,,,,,,,,,,,,,,,,,,,,,,,,,,,,,,451.4246104999911,451.4325317000039,0.0001129999291151762,451.7375520998612,451.7390332999639,451.7511093998328,455.72887949994765,455.7290880999062,455.73658769996837,457.9700469998643,457.9579443000257,457.95933969994076,457.9700469998643,459.9616788998246,459.95327359996736,459.9533732999116,459.9616788998246,459.9616788998246,460.24531379994005,1,0.2752704001031816,None,460.2454492999241,460.25320779997855,462.8535628998652,462.82452809996903,stimuli/ciseau.png,stimuli/face.png,1,1,0.9435361998621374,23,,,,,,,,,,,,,,,,,,,,,,,,,,,sub-098,001,2025-06-25_14h43.35.278,learn_probe,2024.2.4,240.02630686000353,1,2,"['1', '2']",2025-06-25 14h43.55.799519 -0400,
1,0,1,,,,space,0.9435361998621374,None,,,,,space,4.034210999961942,None,,,,space,1.2715140001382679,None,1,0,1,0,,,,,,,,,,,,,,,,,,,,,,,,,,,,,,,,,,,,,,,,,,,,,,,,,,,,,,,,,,,,,,,,,,,,,,,,,,,,,,,,,,,,,,,,,,,,,,,,,,,,462.84378609992564,462.8535628998652,462.8535628998652,464.1266946999822,space,1.2715140001382679,None,,,,,,,,,,,,,,,,,,,sub-098,001,2025-06-25_14h43.35.278,learn_probe,2024.2.4,240.02630686000353,1,2,"['1', '2']",2025-06-25 14h43.55.799519 -0400,
0,0,0,C_D,stimuli/face.png,stimuli/banane.png,space,0.8796491997782141,None,,,,,,,,,,,,,,2,0,2,0,0,0,0,2,,,,,465.0327486998867,,,,,,,,,,,,,,,,,464.1267977999523,464.13260449981317,464.13260449981317,465.0206361999735,space,0.8796491997782141,None,465.0224845998455,465.0327486998867,0.0018402999266982079,465.3327369999606,465.33275689999573,465.34101379988715,,465.6241986998357,465.6253757998347,465.6322512999177,467.1280727998819,467.1203681998886,467.12046749982983,467.1280727998819,470.07822939986363,470.070371999871,470.0713229998946,470.07822939986363,471.57434229995124,471.5657955999486,471.5659111998975,471.57434229995124,476.5705864999909,476.56147479987703,stimuli/face.png,stimuli/banane.png,2.9514768987168116,,,,,,,,,,,,,,,,,,,,,,,,,,,,,,,,,,,,,,,,,,,,,,,,,,,,,,,,,,,,,,,,,,sub-098,001,2025-06-25_14h43.35.278,learn_probe,2024.2.4,240.02630686000353,1,2,"['1', '2']",2025-06-25 14h43.55.799519 -0400,
1,1,0,B_C,stimuli/ciseau.png,stimuli/face.png,space,0.8796491997782141,None,,,,,,,,,,,,,,2,0,2,0,0,1,1,1,,,,,476.5705864999909,,,,,,,,,,,,,,,,,,,,,,,,476.56156349997036,476.5705864999909,0.00018820003606379032,476.88225659984164,476.88229799992405,476.89068640000187,,477.17564969998784,477.17672159988433,477.18678170000203,,478.6742130999919,478.6744345999323,478.6823256998323,479.7443050998263,479.7320597998332,479.7334820998367,479.7443050998263,481.2359277999494,481.22816459997557,481.22842669999227,481.2359277999494,486.23223489988595,486.22400949988514,stimuli/ciseau.png,stimuli/face.png,1.0647816274439559,,,,,,,,,,,,,,,,,,,,,,,,,,,,,,,,,,,,,,,,,,,,,,,,,,,,,,,,,,,,,,,,,,sub-098,001,2025-06-25_14h43.35.278,learn_probe,2024.2.4,240.02630686000353,1,2,"['1', '2']",2025-06-25 14h43.55.799519 -0400,
2,2,0,A_B,stimuli/zèbre.png,stimuli/ciseau.png,space,0.8796491997782141,None,,,,,,,,,,,,,,2,0,2,0,0,2,2,0,,,,,486.23223489988595,,,,,,,,,,,,,,,,,,,,,,,,486.22409879998304,486.23223489988595,7.38000962883234e-05,486.5403674999252,486.54038679995574,486.5488463998772,486.8403848998714,486.8319385999348,486.8329827999696,486.8403848998714,488.33644749992527,488.32803089986555,488.3281417998951,488.33644749992527,489.5864793998189,489.57861249987036,489.5795960999094,489.5864793998189,491.0776804999914,491.0703920999076,491.0705075999722,491.0776804999914,496.06958119990304,496.06174979987554,stimuli/zèbre.png,stimuli/ciseau.png,1.2539435862209747,,,,,,,,,,,,,,,,,,,,,,,,,,,,,,,,,,,,,,,,,,,,,,,,,,,,,,,,,,,,,,,,,,sub-098,001,2025-06-25_14h43.35.278,learn_probe,2024.2.4,240.02630686000353,1,2,"['1', '2']",2025-06-25 14h43.55.799519 -0400,
3,0,1,C_D,stimuli/face.png,stimuli/banane.png,space,0.8796491997782141,None,,,,,,,,,,,,,,2,0,2,0,1,0,3,2,,,,,496.06958119990304,,,,,,,,,,,,,,,,,,,,,,,,496.06183829996735,496.06958119990304,-0.0007042998913675547,496.38625799980946,496.38627869985066,496.39458570000716,,496.68201719992794,496.68315429985523,496.69041019980796,498.18202669988386,498.1736575998366,498.17377289989963,498.18202669988386,499.66542269987985,499.65740799997,499.6583864998538,499.66542269987985,501.16123339999467,501.15288409986533,501.1530241998844,501.16123339999467,506.15312469983473,506.1445283999201,stimuli/face.png,stimuli/banane.png,1.4895854090782352,,,,,,,,,,,,,,,,,,,,,,,,,,,,,,,,,,,,,,,,,,,,,,,,,,,,,,,,,,,,,,,,,,sub-098,001,2025-06-25_14h43.35.278,learn_probe,2024.2.4,240.02630686000353,1,2,"['1', '2']",2025-06-25 14h43.55.799519 -0400,
4,1,1,B_C,stimuli/ciseau.png,stimuli/face.png,space,0.8796491997782141,None,,,,,,,,,,,,,,2,0,2,0,1,1,4,1,,,,,506.15312469983473,,,,,,,,,,,,,,,,,,,,,,,,506.1446189999115,506.15312469983473,0.0036675999872386456,506.46961889998056,506.46963909990154,506.477715899935,,506.7610969999805,506.7620552999433,506.7692007999867,508.2653713999316,508.25703019998036,508.2571355998516,508.2653713999316,509.81972339982167,509.80716199986637,509.8081771999132,509.81972339982167,511.3106565999333,511.30323999980465,511.3038869998418,511.3106565999333,516.3026764998212,516.2948864998762,stimuli/ciseau.png,stimuli/face.png,1.5560800451000505,,,,,,,,,,,,,,,,,,,,,,,,,,,,,,,,,,,,,,,,,,,,,,,,,,,,,,,,,,,,,,,,,,sub-098,001,2025-06-25_14h43.35.278,learn_probe,2024.2.4,240.02630686000353,1,2,"['1', '2']",2025-06-25 14h43.55.799519 -0400,
5,2,1,A_B,stimuli/zèbre.png,stimuli/ciseau.png,space,0.8796491997782141,None,,,,,,,,,,,,,,2,0,2,0,1,2,5,0,,,,,516.3026764998212,,,,,,,,,,,,,,,,,,,,,,,,516.2949814000167,516.3026764998212,0.003934399923309684,516.6195819999557,516.6196260999423,516.6279138999525,,516.9150268000085,516.9160356998909,516.9235389998648,,518.4109708999749,518.4110755999573,518.4194343998097,521.2778541999869,521.2697772998363,521.2707721998449,521.2778541999869,522.769560799934,522.7614495998714,522.7615532998461,522.769560799934,527.7608810998499,527.7527299998328,stimuli/zèbre.png,stimuli/ciseau.png,2.861216565579732,,,,,,,,,,,,,,,,,,,,,,,,,,,,,,,,,,,,,,,,,,,,,,,,,,,,,,,,,,,,,,,,,,sub-098,001,2025-06-25_14h43.35.278,learn_probe,2024.2.4,240.02630686000353,1,2,"['1', '2']",2025-06-25 14h43.55.799519 -0400,
6,0,2,C_D,stimuli/face.png,stimuli/banane.png,space,0.8796491997782141,None,,,,,,,,,,,,,,2,0,2,0,2,0,6,2,,,,,527.7608810998499,,,,,,,,,,,,,,,,,,,,,,,,527.7528229998425,527.7608810998499,-0.0006944001652300358,528.078032999998,528.0780740999617,528.0860040998086,528.3791977998335,528.3695113998838,528.3704873998649,528.3791977998335,529.8734779998194,529.8655079000164,529.8656774999108,529.8734779998194,532.3065589999314,532.2903982999269,532.2913879000116,532.3065589999314,533.7983495998196,533.7903942998964,533.7904790998437,533.7983495998196,538.7899873999413,538.7818201000337,stimuli/face.png,stimuli/banane.png,2.432449972301635,,,,,,,,,,,,,,,,,,,,,,,,,,,,,,,,,,,,,,,,,,,,,,,,,,,,,,,,,,,,,,,,,,sub-098,001,2025-06-25_14h43.35.278,learn_probe,2024.2.4,240.02630686000353,1,2,"['1', '2']",2025-06-25 14h43.55.799519 -0400,
7,1,2,B_C,stimuli/ciseau.png,stimuli/face.png,space,0.8796491997782141,None,,,,,,,,,,,,,,2,0,2,0,2,1,7,1,,,,,538.7899873999413,,,,,,,,,,,,,,,,,,,,,,,,538.781907199882,538.7899873999413,-0.0004631001502275467,539.0982327999081,539.0982510999311,539.1070015998557,,539.3905898998491,539.391571899876,539.4027463998646,540.8999032999855,540.8861539999489,540.886586099863,540.8999032999855,543.3481415000279,543.3402187000029,543.3412076998502,543.3481415000279,544.8399993998464,544.8320092000067,544.8321261999663,544.8399993998464,549.8316313999239,549.82359299995,stimuli/ciseau.png,stimuli/face.png,2.453256231698158,,,,,,,,,,,,,,,,,,,,,,,,,,,,,,,,,,,,,,,,,,,,,,,,,,,,,,,,,,,,,,,,,,sub-098,001,2025-06-25_14h43.35.278,learn_probe,2024.2.4,240.02630686000353,1,2,"['1', '2']",2025-06-25 14h43.55.799519 -0400,
8,2,2,A_B,stimuli/zèbre.png,stimuli/ciseau.png,space,0.8796491997782141,None,,,,,,,,,,,,,,2,0,2,0,2,2,8,0,,,,,549.8316313999239,,,,,,,,,,,,,,,,,,,,,,,,549.8236811999232,549.8316313999239,-0.0005697999149560928,550.148413799936,550.1484552999027,550.1565940999426,,550.4440462999046,550.4452495998703,550.4522867000196,551.943982699886,551.9358949000016,551.9360299999826,551.943982699886,553.9061176998075,553.8982789998408,553.8992673999164,553.9061176998075,555.4022090998478,555.3944571998436,555.3945604998153,555.4022090998478,560.4083628000226,560.3900031999219,stimuli/zèbre.png,stimuli/ciseau.png,1.9664431280921904,,,,,,,,,,,,,,,,,,,,,,,,,,,,,,,,,,,,,,,,,,,,,,,,,,,,,,,,,,,,,,,,,,sub-098,001,2025-06-25_14h43.35.278,learn_probe,2024.2.4,240.02630686000353,1,2,"['1', '2']",2025-06-25 14h43.55.799519 -0400,
0,0,0,,,,space,0.8796491997782141,None,stimuli/face.png,stimuli/zèbre.png,Qu'est-ce qui vient ensuite ?,non-match,space,1.6206368000712246,None,2,0.3941146999131888,None,,,,2,0,2,0,,,,,0,0,0,3,562.0432064000051,,,,,,,,,,,,,,,,,,,,,,,,,,,,,,,,,,,,,,,,,,,,,,,,,,,560.398746999912,560.4083628000226,560.4083628000226,562.0362907999661,space,1.6206368000712246,None,562.0383104998618,562.0432064000051,0.0020115000661462545,562.3479902998079,562.3488772998098,562.3562398999929,566.3393367999233,566.3395475000143,566.3476849999279,568.7270358998794,568.7189835000318,568.7199871998746,568.7270358998794,570.7230159000028,570.714762599906,570.7149629998021,570.7230159000028,570.7230159000028,571.119482900016,2,0.3941146999131888,None,571.1195898000151,571.1271031999495,572.3979825000279,572.3896443999838,stimuli/face.png,stimuli/zèbre.png,1,2,0.8796491997782141,24,,,,,,,,,,,,,,,,,,,,,,,,,,,sub-098,001,2025-06-25_14h43.35.278,learn_probe,2024.2.4,240.02630686000353,1,2,"['1', '2']",2025-06-25 14h43.55.799519 -0400,
1,1,0,,,,space,0.8796491997782141,None,stimuli/zèbre.png,stimuli/ciseau.png,Qu'est-ce qui vient ensuite ?,match,space,1.6206368000712246,None,1,0.22709689987823367,None,,,,2,0,2,0,,,,,0,1,1,10,572.3979825000279,,,,,,,,,,,,,,,,,,,,,,,,,,,,,,,,,,,,,,,,,,,,,,,,,,,,,,,,,,572.3898383998312,572.3979825000279,0.00010889978148043156,572.6979153000284,572.698829599889,572.7069435999729,576.6938924998976,576.6941029999871,576.7017937998753,578.7103476999328,578.6983405998908,578.699335699901,578.7103476999328,580.7061687998939,580.6980965000112,580.6982160999905,580.7061687998939,580.7061687998939,580.9398441999219,1,0.22709689987823367,None,580.9399961000308,580.9478550998028,583.7672429999802,583.763378799893,stimuli/zèbre.png,stimuli/ciseau.png,1,1,0.8796491997782141,25,,,,,,,,,,,,,,,,,,,,,,,,,,,sub-098,001,2025-06-25_14h43.35.278,learn_probe,2024.2.4,240.02630686000353,1,2,"['1', '2']",2025-06-25 14h43.55.799519 -0400,
2,2,0,,,,space,0.8796491997782141,None,stimuli/face.png,stimuli/ciseau.png,Qu'est-ce qui vient ensuite ?,non-match,space,1.6206368000712246,None,2,0.27080359985120595,None,,,,2,0,2,0,,,,,0,2,2,11,583.7672429999802,,,,,,,,,,,,,,,,,,,,,,,,,,,,,,,,,,,,,,,,,,,,,,,,,,,,,,,,,,583.7635600999929,583.7672429999802,0.00011259992606937885,584.0673346999101,584.0682780998759,584.0759510998614,588.0644998999778,588.0645971999038,588.0724787998479,589.4105688999407,589.4020557999611,589.4030676998664,589.4105688999407,591.4060664998833,591.3981148998719,591.3982094000094,591.4060664998833,591.4060664998833,591.681290099863,2,0.27080359985120595,None,591.6814352998044,591.6896395999938,594.3063164998312,594.2978768998291,stimuli/face.png,stimuli/ciseau.png,1,2,0.8796491997782141,26,,,,,,,,,,,,,,,,,,,,,,,,,,,sub-098,001,2025-06-25_14h43.35.278,learn_probe,2024.2.4,240.02630686000353,1,2,"['1', '2']",2025-06-25 14h43.55.799519 -0400,
3,3,0,,,,space,0.8796491997782141,None,stimuli/ciseau.png,stimuli/face.png,Qu'est-ce qui vient ensuite ?,match,space,1.6206368000712246,None,1,0.30061359982937574,None,,,,2,0,2,0,,,,,0,3,3,7,594.3063164998312,,,,,,,,,,,,,,,,,,,,,,,,,,,,,,,,,,,,,,,,,,,,,,,,,,,,,,,,,,594.2981249999721,594.3063164998312,0.00010700011625885963,594.6062780998182,594.6072039999999,594.6162939998321,598.606081899954,598.6062217999715,598.6143547999673,600.6642693998292,600.6561871999875,600.6571761998348,600.6642693998292,602.6562255998142,602.6479140999727,602.6480512998533,602.6562255998142,602.6562255998142,602.9646669998765,1,0.30061359982937574,None,602.9647667999379,602.9727485999465,604.772643599892,604.7647253999021,stimuli/ciseau.png,stimuli/face.png,1,1,0.8796491997782141,27,,,,,,,,,,,,,,,,,,,,,,,,,,,sub-098,001,2025-06-25_14h43.35.278,learn_probe,2024.2.4,240.02630686000353,1,2,"['1', '2']",2025-06-25 14h43.55.799519 -0400,
4,4,0,,,,space,0.8796491997782141,None,stimuli/ciseau.png,stimuli/zèbre.png,Qu'est-ce qui vient ensuite ?,non-match,space,1.6206368000712246,None,2,0.37397199985571206,None,,,,2,0,2,0,,,,,0,4,4,2,604.772643599892,,,,,,,,,,,,,,,,,,,,,,,,,,,,,,,,,,,,,,,,,,,,,,,,,,,,,,,,,,604.7649315998424,604.772643599892,0.00011630007065832615,605.072570099961,605.0735718999058,605.0816583000124,609.0643805998843,609.0644908000249,609.0725332000293,610.6267601000145,610.6184783999342,610.6194806999993,610.6267601000145,612.622906500008,612.6142654998694,612.6143632999156,612.622906500008,612.622906500008,613.0022473998833,2,0.37397199985571206,None,613.0023843999952,613.0095151998103,615.3681593998335,615.3602564998437,stimuli/ciseau.png,stimuli/zèbre.png,1,2,0.8796491997782141,28,609.0725332000293,,,,,,,,,,,,,,,,,,,,,,,,,,sub-098,001,2025-06-25_14h43.35.278,learn_probe,2024.2.4,240.02630686000353,1,2,"['1', '2']",2025-06-25 14h43.55.799519 -0400,
5,5,0,,,,space,0.8796491997782141,None,stimuli/ciseau.png,stimuli/face.png,Qu'est-ce qui vient ensuite ?,match,space,1.6206368000712246,None,1,0.3978555998764932,None,,,,2,0,2,0,,,,,0,5,5,9,615.3681593998335,,,,,,,,,,,,,,,,,,,,,,,,,,,,,,,,,,,,,,,,,,,,,,,,,,,,,,,,,,615.3604536999483,615.3681593998335,0.00010890001431107521,615.6684326999821,615.6693360998761,615.67665509996,619.6604366998654,619.6605999998283,619.6683410999831,620.8600685999263,620.851756399963,620.8527610998135,620.8600685999263,622.8555793999694,622.8476118999533,622.8477443999145,622.8555793999694,622.8555793999694,623.256261699833,1,0.3978555998764932,None,623.256383099826,623.263972699875,625.8973625998478,625.8892567998264,stimuli/ciseau.png,stimuli/face.png,1,1,0.8796491997782141,29,,,,,,,,,,,,,,,,,,,,,,,,,,,sub-098,001,2025-06-25_14h43.35.278,learn_probe,2024.2.4,240.02630686000353,1,2,"['1', '2']",2025-06-25 14h43.55.799519 -0400,
6,6,0,,,,space,0.8796491997782141,None,stimuli/zèbre.png,stimuli/banane.png,Qu'est-ce qui vient ensuite ?,non-match,space,1.6206368000712246,None,2,0.4316090000793338,None,,,,2,0,2,0,,,,,0,6,6,5,625.8973625998478,,,,,,,,,,,,,,,,,,,,,,,,,,,,,,,,,,,,,,,,,,,,,,,,,,,,,,,,,,625.8894354999065,625.8973625998478,0.00011079991236329079,626.1971785998903,626.1984206999186,626.205387199996,630.189208699856,630.1893352000043,630.1975777000189,632.5849939000327,632.5723811998032,632.5734947999008,632.5849939000327,,634.5727278999984,634.5729499999434,634.5809014998376,634.5809014998376,635.0144278998487,2,0.4316090000793338,None,635.0145464998204,635.0242005998734,637.4726315999869,637.4643228999339,stimuli/zèbre.png,stimuli/banane.png,1,2,0.8796491997782141,30,630.1975777000189,,,,,,,,,,,,,,,,,,,,,,,,,,sub-098,001,2025-06-25_14h43.35.278,learn_probe,2024.2.4,240.02630686000353,1,2,"['1', '2']",2025-06-25 14h43.55.799519 -0400,
7,7,0,,,,space,0.8796491997782141,None,stimuli/face.png,stimuli/banane.png,Qu'est-ce qui vient ensuite ?,match,space,1.6206368000712246,None,1,0.24288769997656345,None,,,,2,0,2,0,,,,,0,7,7,1,637.4726315999869,,,,,,,,,,,,,,,,,,,,,,,,,,,,,,,,,,,,,,,,,,,,,,,,,,,,,,,,,,637.4646161999553,637.4726315999869,0.00012199999764561653,637.7767533999868,637.7778239999898,637.7849485999905,641.7723656999879,641.772464199923,641.7805004999973,643.2180381999351,643.2099142998923,643.2109475999605,643.2180381999351,645.209622999886,645.2016990999691,645.2018093999941,645.209622999886,645.209622999886,645.4599257998634,1,0.24288769997656345,None,645.4600923999678,645.4681024998426,646.7388404998928,646.7309210998937,stimuli/face.png,stimuli/banane.png,1,1,0.8796491997782141,31,,,,,,,,,,,,,,,,,,,,,,,,,,,sub-098,001,2025-06-25_14h43.35.278,learn_probe,2024.2.4,240.02630686000353,1,2,"['1', '2']",2025-06-25 14h43.55.799519 -0400,
8,8,0,,,,space,0.8796491997782141,None,stimuli/zèbre.png,stimuli/face.png,Qu'est-ce qui vient ensuite ?,non-match,space,1.6206368000712246,None,2,0.40200260002166033,None,,,,2,0,2,0,,,,,0,8,8,8,646.7388404998928,,,,,,,,,,,,,,,,,,,,,,,,,,,,,,,,,,,,,,,,,,,,,,,,,,,,,,,,,,646.7311317999847,646.7388404998928,0.00010870001278817654,647.0390080998186,647.0398947999347,647.0470155000221,651.0310153998435,651.0311242998578,651.0388483998831,653.3384819999337,653.3307315998245,653.3318363998551,653.3384819999337,655.3304255998228,655.3222876000218,655.3223955999129,655.3304255998228,655.3304255998228,655.7393214998301,2,0.40200260002166033,None,655.7394333998673,655.7473494999576,658.6222157999873,658.614353899844,stimuli/zèbre.png,stimuli/face.png,1,2,0.8796491997782141,32,651.0388483998831,,,,,,,,,,,,,,,,,,,,,,,,,,sub-098,001,2025-06-25_14h43.35.278,learn_probe,2024.2.4,240.02630686000353,1,2,"['1', '2']",2025-06-25 14h43.55.799519 -0400,
9,9,0,,,,space,0.8796491997782141,None,stimuli/face.png,stimuli/banane.png,Qu'est-ce qui vient ensuite ?,match,space,1.6206368000712246,None,1,0.39125139988027513,None,,,,2,0,2,0,,,,,0,9,9,4,658.6222157999873,,,,,,,,,,,,,,,,,,,,,,,,,,,,,,,,,,,,,,,,,,,,,,,,,,,,,,,,,,658.6145662998315,658.6222157999873,0.00011819996871054173,658.9217915998306,658.9226457998157,658.9307428000029,662.9138505000155,662.9139640999492,662.9217125999276,664.1052508000284,664.0972614998464,664.0982733999845,664.1052508000284,666.1015230999328,666.0930623998865,666.0932326999027,666.1015230999328,666.1015230999328,666.4937958000228,1,0.39125139988027513,None,666.4939356998075,666.5010344998445,668.5095072998665,668.5013421999756,stimuli/face.png,stimuli/banane.png,1,1,0.8796491997782141,33,662.9217125999276,,,,,,,,,,,,,,,,,,,,,,,,,,sub-098,001,2025-06-25_14h43.35.278,learn_probe,2024.2.4,240.02630686000353,1,2,"['1', '2']",2025-06-25 14h43.55.799519 -0400,
10,10,0,,,,space,0.8796491997782141,None,stimuli/zèbre.png,stimuli/ciseau.png,Qu'est-ce qui vient ensuite ?,match,space,1.6206368000712246,None,1,0.40551349986344576,None,,,,2,0,2,0,,,,,0,10,10,6,668.5095072998665,,,,,,,,,,,,,,,,,,,,,,,,,,,,,,,,,,,,,,,,,,,,,,,,,,,,,,,,,,668.5015278998762,668.5095072998665,0.00011499994434416294,668.809386999812,668.8103175999131,668.8177079998422,672.8013360998593,672.801466899924,672.8093574999366,675.2845978999976,675.2765769998077,675.2775905998424,675.2845978999976,677.280172099825,677.2721580998041,677.2722632999066,677.280172099825,677.280172099825,677.6933452999219,1,0.40551349986344576,None,677.6934861999471,677.7008175000083,679.0715232999064,679.0640993998386,stimuli/zèbre.png,stimuli/ciseau.png,1,1,0.8796491997782141,34,672.8093574999366,,,,,,,,,,,,,,,,,,,,,,,,,,sub-098,001,2025-06-25_14h43.35.278,learn_probe,2024.2.4,240.02630686000353,1,2,"['1', '2']",2025-06-25 14h43.55.799519 -0400,
11,11,0,,,,space,0.8796491997782141,None,stimuli/ciseau.png,stimuli/banane.png,Qu'est-ce qui vient ensuite ?,non-match,space,1.6206368000712246,None,2,0.32848859997466207,None,,,,2,0,2,0,,,,,0,11,11,0,679.0715232999064,,,,,,,,,,,,,,,,,,,,,,,,,,,,,,,,,,,,,,,,,,,,,,,,,,,,,,,,,,679.0642958998214,679.0715232999064,0.00010939990170300007,679.3762035998516,679.3771240999922,679.3840174998622,683.3718053000048,683.3719726998825,683.3804084998555,686.0300239999779,686.0221986998804,686.0232051999774,686.0300239999779,688.0214676999021,688.013369299937,688.0134934999514,688.0214676999021,688.0214676999021,688.3553046998568,2,0.32848859997466207,None,688.3554400999565,688.363519199891,689.529624799965,689.5052809999324,stimuli/ciseau.png,stimuli/banane.png,1,2,0.8796491997782141,35,,,,,,,,,,,,,,,,,,,,,,,,,,,sub-098,001,2025-06-25_14h43.35.278,learn_probe,2024.2.4,240.02630686000353,1,2,"['1', '2']",2025-06-25 14h43.55.799519 -0400,
2,0,2,,,,space,0.8796491997782141,None,,,,,space,1.6206368000712246,None,,,,space,1.4035416999831796,None,2,0,2,0,,,,,,,,,,,,,,,,,,,,,,,,,,,,,,,,,,,,,,,,,,,,,,,,,,,,,,,,,,,,,,,,,,,,,,,,,,,,,,,,,,,,,,,,,,,,,,,,,,,,689.5245725000277,689.529624799965,689.529624799965,690.9344847998582,space,1.4035416999831796,None,,,,,,,,,,,,,,,,,,,sub-098,001,2025-06-25_14h43.35.278,learn_probe,2024.2.4,240.02630686000353,1,2,"['1', '2']",2025-06-25 14h43.55.799519 -0400,
,,,,,,,,,,,,,,,,,,,,,,,,,,,,,,,,,,,,,,,,,,,,,,,,,,,,,,,,,,,,,,,,,,,,,,,,,,,,,,,,,,,,,,,,,,,,,,,,,,,,,,,,,,,,,,,,,,,,,,,,,,,,,,,,,,,,690.9594258998986,690.9675133000128,690.9675133000128,694.1929836999625,space,3.220689000096172,None,,,,,,,,,,,,sub-098,001,2025-06-25_14h43.35.278,learn_probe,2024.2.4,240.02630686000353,1,2,"['1', '2']",2025-06-25 14h43.55.799519 -0400,
,,,,,,,,,,,,,,,,,,,,,,,,,,,,,,,,,,,,,,,,,,,,,,,,,,,,,,,,,,,,,,,,,,,,,,,,,,,,,,,,,,,,,,,,,,,,,,,,,,,,,,,,,,,,,,,,,,,,,,,,,,,,,,,,,,,,,,,,,,,694.1930147998501,694.2005574000068,994.1936612999998,994.1857675998472,,,,,,,,sub-098,001,2025-06-25_14h43.35.278,learn_probe,2024.2.4,240.02630686000353,1,2,"['1', '2']",2025-06-25 14h43.55.799519 -0400,
,,,,,,,,,,,,,,,,,,,,,,,,,,,,,,,,,,,,,,,,,,,,,,,,,,,,,,,,,,,,,,,,,,,,,,,,,,,,,,,,,,,,,,,,,,,,,,,,,,,,,,,,,,,,,,,,,,,,,,,,,,,,,,,,,,,,,,,,,,,,,,,994.1858940999955,994.1936612999998,994.1936612999998,998.5899082999676,space,4.394848600029945,None,sub-098,001,2025-06-25_14h43.35.278,learn_probe,2024.2.4,240.02630686000353,1,2,"['1', '2']",2025-06-25 14h43.55.799519 -0400,
