image_file,presented_word,is_match,blank_duration,iti_duration,corrAns,thisN,thisTrialN,thisRepN,key_resp.keys,key_resp.corr,finish_time.keys,key_resp.rt,key_resp.duration,finish_time.rt,finish_time.duration,inside_loop_trials.thisRepN,inside_loop_trials.thisTrialN,inside_loop_trials.thisN,inside_loop_trials.thisIndex,thisRow.t,notes,setup_experiment.started,instr_text.started,instr_resp.started,setup_experiment.stopped,instr_resp.keys,instr_resp.rt,instr_resp.duration,start_eeg.started,text_2.started,key_resp_3.started,text_2.stopped,start_eeg.stopped,key_resp_3.keys,key_resp_3.rt,key_resp_3.duration,load_images.started,text_3.started,preload_current_image_2.started,load_images.stopped,fixation_2.started,fixation.started,fixation.stopped,fixation_2.stopped,trials_image.started,stim_image.started,stim_image.stopped,trials_image.stopped,trials_word.started,stim_word.started,stim_word.stopped,trials_word.stopped,blank.started,blank_interval.started,blank_interval.stopped,blank.stopped,response.started,key_resp.started,text.started,key_resp.stopped,text.stopped,response.stopped,inside_loop_trials.key_resp.keys,inside_loop_trials.key_resp.corr,image_presented,word_presented,is_match_condition,response_given,response_correct,response_rt,feedback_message_to_show,show_feedback_flag_value,feedback_routine.started,feedback_text_display.started,feedback_text_display.stopped,feedback_routine.stopped,iti_routine.started,iti_fixation.started,iti_fixation.stopped,iti_routine.stopped,break_2.started,break_2.stopped,inside_loop_trials.finish_time.keys,text_3.stopped,inside_loop_trials.key_resp.rt,inside_loop_trials.key_resp.duration,timer_text.started,finish_time.started,inside_loop_trials.finish_time.rt,inside_loop_trials.finish_time.duration,participant,session,date,expName,psychopyVersion,frameRate,match_key,mismatch_key,allowed_keys_list,expStart,
,,,,,,,,,,,,,,,,,,,,,,0.01647400000001653,0.030120800001895986,0.030120800001895986,7.023593000001711,space,6.989070899999206,None,,,,,,,,,,,,,,,,,,,,,,,,,,,,,,,,,,,,,,,,,,,,,,,,,,,,,,,,,,,,,,,sub-088,001,2025-06-10_15h24.05.961,FunctionalLocalizer,2024.2.4,61.28701505877722,1,2,"['1', '2']",2025-06-10 15h25.06.550769 -0400,
,,,,,,,,,,,,,,,,,,,,,,,,,,,,,7.150027600000612,7.154452200000378,7.154452200000378,8.168970000002446,9.570022100000642,space,2.408165700002428,None,,,,,,,,,,,,,,,,,,,,,,,,,,,,,,,,,,,,,,,,,,,,,,,,,,,,,,,sub-088,001,2025-06-10_15h24.05.961,FunctionalLocalizer,2024.2.4,61.28701505877722,1,2,"['1', '2']",2025-06-10 15h25.06.550769 -0400,
stimuli/zebra.png,scissor,mismatch,1.29,1.68,2,0,0,0,None,0,None,,,,,0,0,0,0,9.590573500001483,,,,,,,,,,,,,,,,,9.587198900000658,9.590573500001483,0.017153299999336014,10.078674399999727,10.078715900002862,10.08517159999974,10.585515200000373,10.569666200000938,10.572310200001084,10.585515200000373,11.585488500000793,11.569636200001696,11.569970700002159,11.585488500000793,12.585579300000973,12.569533900001261,12.57002420000208,12.585579300000973,14.185265500000241,14.169301000001724,14.176589900002,14.185265500000241,14.185265500000241,16.185251500002778,16.185251500002778,16.169300400000793,None,0,stimuli/zebra.png,scissor,mismatch,None,0,None,Délai de réponse dépassé. Veuillez répondre rapidement.,True,16.17496140000003,16.185251500002778,17.685432500002207,17.669224600002053,17.671027700002014,17.685432500002207,19.36874650000027,19.3525410000002,19.352590000002238,19.35262960000182,None,,,,,,,,sub-088,001,2025-06-10_15h24.05.961,FunctionalLocalizer,2024.2.4,61.28701505877722,1,2,"['1', '2']",2025-06-10 15h25.06.550769 -0400,
stimuli/scissor.png,scissor,match,1.85,2.09,1,1,1,0,1,1,None,0.6109448000024713,None,,,0,1,1,1,19.36874650000027,,,,,,,,,,,,,,,,,19.352843700002268,19.36874650000027,0.00021500000002561137,19.852279000002454,19.852319699999498,19.868591000002198,20.368710300001112,20.35215380000227,20.353276100002404,20.368710300001112,21.368704600001365,21.352284399999917,21.352522100001806,21.368704600001365,22.368793900001037,22.35252330000003,22.35274130000107,22.368793900001037,24.368486499999563,24.352571200000966,24.35279730000184,24.368486499999563,24.368486499999563,,,24.986419700002443,1,1,stimuli/scissor.png,scissor,match,1,1,0.6109448000024713,,False,24.98744930000248,,,24.987490999999864,24.987533900002745,25.002072499999485,27.10301579999941,27.090806500000326,27.090827800002444,27.090841100001853,None,19.868591000002198,0.6109448000024713,None,,,,,sub-088,001,2025-06-10_15h24.05.961,FunctionalLocalizer,2024.2.4,61.28701505877722,1,2,"['1', '2']",2025-06-10 15h25.06.550769 -0400,
stimuli/face.png,banana,mismatch,1.99,2.32,2,2,2,0,2,1,None,0.487637199999881,None,,,0,2,2,2,27.10301579999941,,,,,,,,,,,,,,,,,27.09092530000271,27.10301579999941,8.209999941755086e-05,27.594062300002406,27.594082499999786,27.60287360000075,28.102037600001495,28.085916899999575,28.088111500001105,28.102037600001495,29.102013200001238,29.08584420000261,29.086068100001285,29.102013200001238,30.10203940000065,30.08573819999947,30.08596630000102,30.10203940000065,31.90724609999961,31.886252100001002,31.886370200001693,31.90724609999961,31.90724609999961,,,32.40329209999982,2,1,stimuli/face.png,banana,mismatch,2,1,0.487637199999881,,False,32.403662100001384,,,32.403703800002404,32.40374370000063,32.41873459999988,34.75195730000269,34.73583530000178,34.73588759999984,34.7359249000001,None,,0.487637199999881,None,,,,,sub-088,001,2025-06-10_15h24.05.961,FunctionalLocalizer,2024.2.4,61.28701505877722,1,2,"['1', '2']",2025-06-10 15h25.06.550769 -0400,
stimuli/face.png,zebra,mismatch,1.81,1.67,2,3,3,0,2,1,None,0.5510572999992291,None,,,0,3,3,3,34.75195730000269,,,,,,,,,,,,,,,,,34.73613889999979,34.75195730000269,0.00021639999977196567,35.23569630000202,35.235743000001094,35.25182080000013,35.75193860000218,35.73564900000201,35.73829990000013,35.75193860000218,36.75199600000269,36.735795900000085,36.73613640000258,36.75199600000269,37.75191470000209,37.735955100000865,37.73617419999937,37.75191470000209,39.251880300002085,39.23558700000285,39.235829700002796,39.251880300002085,39.251880300002085,,,39.81981730000189,2,1,stimuli/face.png,zebra,mismatch,2,1,0.5510572999992291,,False,39.82033610000144,,,39.82037390000187,39.820410600001196,39.83503589999964,41.5184706,41.50259320000259,41.502655700001924,41.502695800001675,None,35.25182080000013,0.5510572999992291,None,,,,,sub-088,001,2025-06-10_15h24.05.961,FunctionalLocalizer,2024.2.4,61.28701505877722,1,2,"['1', '2']",2025-06-10 15h25.06.550769 -0400,
stimuli/scissor.png,scissor,match,1.65,1.69,1,4,4,0,1,1,None,0.6589401000019279,None,,,0,4,4,4,41.5184706,,,,,,,,,,,,,,,,,41.50291410000136,41.5184706,0.00022170000011101365,42.00230240000019,42.002346600002056,42.01844759999949,42.51855720000094,42.502395600000455,42.504920200000925,42.51855720000094,43.51858020000145,43.502667500000825,43.503036600002815,43.51858020000145,44.519511700000294,44.50363930000094,44.50409779999973,44.519511700000294,46.4405184999996,46.41914950000137,46.41955940000116,46.4405184999996,46.4405184999996,,,47.102978099999746,1,1,stimuli/scissor.png,scissor,match,1,1,0.6589401000019279,,False,47.103344000002835,,,47.103378700001485,47.103414500001236,47.11855280000236,48.81857239999954,48.802491099999315,48.80255600000237,48.802596400000766,None,42.01844759999949,0.6589401000019279,None,,,,,sub-088,001,2025-06-10_15h24.05.961,FunctionalLocalizer,2024.2.4,61.28701505877722,1,2,"['1', '2']",2025-06-10 15h25.06.550769 -0400,
stimuli/banana.png,scissor,mismatch,1.2,1.62,2,5,5,0,2,1,None,0.756962299998122,None,,,0,5,5,5,48.81857239999954,,,,,,,,,,,,,,,,,48.80282430000079,48.81857239999954,0.0002299999978276901,49.30217790000097,49.30223230000047,49.3182925000001,49.81862820000242,49.80259719999958,49.80523549999998,49.81862820000242,50.818534900001396,50.802520500001265,50.80284240000037,50.818534900001396,51.8182882000001,51.80245190000278,51.80257460000212,51.8182882000001,53.31843520000257,53.3023174000009,53.30254980000245,53.31843520000257,53.31843520000257,,,54.08614010000019,2,1,stimuli/banana.png,scissor,mismatch,2,1,0.756962299998122,,False,54.08666910000102,,,54.086710600000515,54.086749100002635,54.10179260000223,55.73512860000119,55.718777100002626,55.71882900000128,55.71886649999942,None,49.3182925000001,0.756962299998122,None,,,,,sub-088,001,2025-06-10_15h24.05.961,FunctionalLocalizer,2024.2.4,61.28701505877722,1,2,"['1', '2']",2025-06-10 15h25.06.550769 -0400,
stimuli/scissor.png,scissor,match,1.9,2.33,1,6,6,0,2,0,None,0.8271119999990333,None,,,0,6,6,6,55.73512860000119,,,,,,,,,,,,,,,,,55.719078199999785,55.73512860000119,0.00021240000205580145,56.21885480000128,56.21889890000239,56.23497839999982,,56.723743900001864,56.72472310000012,56.740468600000895,57.75166750000062,57.735498500001995,57.73569580000185,57.75166750000062,58.75174759999936,58.735590300002514,58.73578610000186,58.75174759999936,60.35173230000146,60.33554410000215,60.33578210000269,60.35173230000146,60.35173230000146,,,61.186229200000525,2,0,stimuli/scissor.png,scissor,match,2,0,0.8271119999990333,Mauvaise réponse,True,61.190816900001664,61.20153650000066,62.7012973000019,62.685557799999515,62.685621399999945,62.7012973000019,65.04043660000025,65.01880309999979,65.01886990000276,65.01891120000073,None,56.23497839999982,0.8271119999990333,None,,,,,sub-088,001,2025-06-10_15h24.05.961,FunctionalLocalizer,2024.2.4,61.28701505877722,1,2,"['1', '2']",2025-06-10 15h25.06.550769 -0400,
stimuli/face.png,scissor,mismatch,1.28,2.77,2,7,7,0,2,1,None,0.8959613999977591,None,,,0,7,7,7,65.04043660000025,,,,,,,,,,,,,,,,,65.01914559999932,65.04043660000025,0.0002339000020583626,65.52477420000287,65.52479570000287,65.53546450000067,,66.01899520000006,66.02010820000214,66.03455110000141,67.03492870000264,67.01888510000208,67.01932890000171,67.03492870000264,68.0345997000004,68.02370770000198,68.02390450000166,68.0345997000004,69.2350073000016,69.21880020000026,69.21915920000174,69.2350073000016,69.2350073000016,,,70.13599579999936,2,1,stimuli/face.png,scissor,mismatch,2,1,0.8959613999977591,,False,70.13706509999975,,,70.1371078000011,70.13714810000238,70.15144900000087,72.93482980000044,72.92081719999987,72.92087000000174,72.92090760000065,None,,0.8959613999977591,None,,,,,sub-088,001,2025-06-10_15h24.05.961,FunctionalLocalizer,2024.2.4,61.28701505877722,1,2,"['1', '2']",2025-06-10 15h25.06.550769 -0400,
stimuli/zebra.png,scissor,mismatch,1.47,2.36,2,8,8,0,2,1,None,0.30305419999785954,None,,,0,8,8,8,72.93482980000044,,,,,,,,,,,,,,,,,72.92112760000236,72.93482980000044,0.00022309999985736795,73.41836569999941,73.41840910000246,73.43496930000038,,73.92390350000278,73.92493839999952,73.94018190000133,74.95160000000033,74.93536730000051,74.93563130000257,74.95160000000033,75.95827860000281,75.94038290000026,75.94051330000002,75.95827860000281,77.86817300000257,77.85193490000165,77.85219660000075,77.86817300000257,77.86817300000257,,,78.17425899999944,2,1,stimuli/zebra.png,scissor,mismatch,2,1,0.30305419999785954,,False,78.17438330000004,,,78.17439750000267,78.17441030000191,78.19075100000191,80.55142930000147,80.53527480000048,80.53532750000159,80.53536570000142,None,73.43496930000038,0.30305419999785954,None,,,,,sub-088,001,2025-06-10_15h24.05.961,FunctionalLocalizer,2024.2.4,61.28701505877722,1,2,"['1', '2']",2025-06-10 15h25.06.550769 -0400,
stimuli/scissor.png,scissor,match,1.02,1.59,1,9,9,0,1,1,None,0.411606199999369,None,,,0,9,9,9,80.55142930000147,,,,,,,,,,,,,,,,,80.53558429999975,80.55142930000147,0.00022220000028028153,81.03533729999981,81.03538210000261,81.05140360000223,81.55146190000232,81.5352125999998,81.53780790000019,81.55146190000232,82.55148270000063,82.53532320000159,82.5355864000012,82.55148270000063,83.55138649999935,83.53534560000116,83.53556920000119,83.55138649999935,85.35147929999948,85.33512370000244,85.33547470000121,85.35147929999948,85.35147929999948,,,85.76898680000158,1,1,stimuli/scissor.png,scissor,match,1,1,0.411606199999369,,False,85.76936019999994,,,85.76939889999994,85.76943519999986,85.78479540000262,87.38472019999972,87.36848409999948,87.36853420000261,87.36856959999932,None,81.05140360000223,0.411606199999369,None,,,,,sub-088,001,2025-06-10_15h24.05.961,FunctionalLocalizer,2024.2.4,61.28701505877722,1,2,"['1', '2']",2025-06-10 15h25.06.550769 -0400,
stimuli/zebra.png,zebra,match,1.39,1.84,1,10,10,0,1,1,None,0.3610563000002003,None,,,0,10,10,10,87.38472019999972,,,,,,,,,,,,,,,,,87.36876900000061,87.38472019999972,0.00020220000078552403,87.8685570000016,87.86860800000068,87.88464590000149,,88.37340080000286,88.3743796000017,88.38585500000045,89.40147900000011,89.3848410999999,89.38498370000161,89.40147900000011,90.4024516999998,90.38607749999937,90.38622880000185,90.4024516999998,92.0180743000019,92.00175990000207,92.00199860000066,92.0180743000019,92.0180743000019,,,92.38550179999947,1,1,stimuli/zebra.png,zebra,match,1,1,0.3610563000002003,,False,92.38578000000052,,,92.38581680000061,92.38585299999977,92.40148670000053,94.25132350000058,94.23508779999975,94.23514770000111,94.23518740000145,None,87.88464590000149,0.3610563000002003,None,,,,,sub-088,001,2025-06-10_15h24.05.961,FunctionalLocalizer,2024.2.4,61.28701505877722,1,2,"['1', '2']",2025-06-10 15h25.06.550769 -0400,
stimuli/face.png,scissor,mismatch,1.09,2.47,2,11,11,0,2,1,None,0.29922829999850364,None,,,0,11,11,11,94.25132350000058,,,,,,,,,,,,,,,,,94.23539560000063,94.25132350000058,0.00021220000053290278,94.73646690000169,94.7364963,94.75240250000206,,95.25119470000209,95.25352100000237,95.26804500000071,96.26794460000019,96.25193729999955,96.25221489999967,96.26794460000019,97.26799820000087,97.25174150000021,97.25198319999981,97.26799820000087,98.36793810000017,98.35174030000053,98.35197660000267,98.36793810000017,98.36793810000017,,,98.66891430000032,2,1,stimuli/face.png,scissor,mismatch,2,1,0.29922829999850364,,False,98.66919380000036,,,98.66923080000197,98.66926760000206,98.68467670000246,101.16789240000071,101.15180049999981,101.15186140000151,101.15189960000134,None,94.75240250000206,0.29922829999850364,None,,,,,sub-088,001,2025-06-10_15h24.05.961,FunctionalLocalizer,2024.2.4,61.28701505877722,1,2,"['1', '2']",2025-06-10 15h25.06.550769 -0400,
stimuli/banana.png,banana,match,1.62,1.66,1,12,12,0,1,1,None,0.43351329999859445,None,,,0,12,12,12,101.16789240000071,,,,,,,,,,,,,,,,,101.15210300000035,101.16789240000071,0.00020480000239331275,101.65225510000164,101.65229929999987,101.66890400000193,,102.16806930000166,102.17086130000098,102.18465590000051,103.18456940000033,103.16857700000037,103.16879619999963,103.18456940000033,104.18992590000198,104.17342590000044,104.17353809999986,104.18992590000198,105.80122930000289,105.78505349999978,105.78527220000251,105.80122930000289,105.80122930000289,,,106.25195680000252,1,1,stimuli/banana.png,banana,match,1,1,0.43351329999859445,,False,106.25223280000137,,,106.25226590000239,106.2522996000007,106.26790560000154,107.93444490000184,107.91849360000197,107.91854729999977,107.91858499999944,None,,0.43351329999859445,None,,,,,sub-088,001,2025-06-10_15h24.05.961,FunctionalLocalizer,2024.2.4,61.28701505877722,1,2,"['1', '2']",2025-06-10 15h25.06.550769 -0400,
stimuli/face.png,banana,mismatch,1.4,2.38,2,13,13,0,2,1,None,0.8926367000021855,None,,,0,13,13,13,107.93444490000184,,,,,,,,,,,,,,,,,107.91879840000183,107.93444490000184,0.00021800000104121864,108.42034989999956,108.42036960000041,108.43552990000171,108.93454910000219,108.9184903000023,108.92088420000073,108.93454910000219,109.93455680000261,109.91838710000229,109.91860060000181,109.93455680000261,110.9345170000015,110.91842390000238,110.91864120000173,110.9345170000015,111.93448619999981,111.91822479999973,111.91844640000272,111.93448619999981,111.93448619999981,,,112.83476660000088,2,1,stimuli/face.png,banana,mismatch,2,1,0.8926367000021855,,False,112.83493160000216,,,112.83494989999963,112.83496820000073,112.85094120000213,115.23451700000078,115.21861210000134,115.21867530000236,115.21871640000245,None,,0.8926367000021855,None,,,,,sub-088,001,2025-06-10_15h24.05.961,FunctionalLocalizer,2024.2.4,61.28701505877722,1,2,"['1', '2']",2025-06-10 15h25.06.550769 -0400,
stimuli/face.png,face,match,1.86,1.12,1,14,14,0,1,1,None,0.5927787000000535,None,,,0,14,14,14,115.23451700000078,,,,,,,,,,,,,,,,,115.21894700000121,115.23451700000078,0.00023379999765893444,115.71821490000002,115.71826780000265,115.73450390000289,116.23454870000205,116.21839689999979,116.22087870000178,116.23454870000205,117.23445240000001,117.21831810000003,117.21870240000135,117.23445240000001,118.2344176000006,118.21827480000138,118.2184801000003,118.2344176000006,119.43447210000159,119.4180305000009,119.4183542000028,119.43447210000159,119.43447210000159,,,120.03559020000102,1,1,stimuli/face.png,face,match,1,1,0.5927787000000535,,False,120.03596100000141,,,120.03600030000234,120.03603700000167,120.05113980000169,121.18444870000167,121.16841340000246,121.16847229999985,121.16850990000239,None,115.73450390000289,0.5927787000000535,None,,,,,sub-088,001,2025-06-10_15h24.05.961,FunctionalLocalizer,2024.2.4,61.28701505877722,1,2,"['1', '2']",2025-06-10 15h25.06.550769 -0400,
stimuli/scissor.png,banana,mismatch,1.52,2.9,2,15,15,0,2,1,None,0.49495329999990645,None,,,0,15,15,15,121.18444870000167,,,,,,,,,,,,,,,,,121.16871470000115,121.18444870000167,0.00020850000146310776,121.66814670000167,121.66819020000185,121.68444170000294,122.1841674999996,122.16791170000215,122.16896830000042,122.1841674999996,123.18441710000116,123.16846900000019,123.16882550000082,123.18441710000116,124.184385200002,124.16837510000187,124.16868740000064,124.184385200002,125.28440480000063,125.26826430000074,125.26861909999934,125.28440480000063,125.28440480000063,,,125.78554090000034,2,1,stimuli/scissor.png,banana,mismatch,2,1,0.49495329999990645,,False,125.78590650000115,,,125.78594320000047,125.78597889999946,125.80104040000151,128.70104410000204,128.68501550000292,128.68507600000157,128.68511460000082,None,121.68444170000294,0.49495329999990645,None,,,,,sub-088,001,2025-06-10_15h24.05.961,FunctionalLocalizer,2024.2.4,61.28701505877722,1,2,"['1', '2']",2025-06-10 15h25.06.550769 -0400,
stimuli/zebra.png,banana,mismatch,1.64,2.49,2,16,16,0,2,1,None,0.38573730000280193,None,,,0,16,16,16,128.70104410000204,,,,,,,,,,,,,,,,,128.68533340000067,128.70104410000204,0.00022280000121099874,129.18543710000085,129.18546160000187,129.20227030000024,,129.70119410000189,129.70379239999966,129.7175571000007,130.71753610000087,130.70176110000102,130.70208160000038,130.71753610000087,131.71770749999996,131.70173390000127,131.70212420000098,131.71770749999996,133.6172351000023,133.60237840000264,133.60251970000172,133.6172351000023,133.6172351000023,,,134.01844880000135,2,1,stimuli/zebra.png,banana,mismatch,2,1,0.38573730000280193,,False,134.0187552000025,,,134.01877930000046,134.0188022000002,134.03432149999935,136.53425330000027,136.51838810000118,136.51844809999966,136.51848579999933,None,,0.38573730000280193,None,,,,,sub-088,001,2025-06-10_15h24.05.961,FunctionalLocalizer,2024.2.4,61.28701505877722,1,2,"['1', '2']",2025-06-10 15h25.06.550769 -0400,
stimuli/scissor.png,scissor,match,1.93,2.53,1,17,17,0,1,1,None,0.6406213999980537,None,,,0,17,17,17,136.53425330000027,,,,,,,,,,,,,,,,,136.51869480000096,136.53425330000027,0.0002119999990100041,137.01802220000172,137.01807730000291,137.0340309000021,137.53426970000146,137.51815519999946,137.5211589999999,137.53426970000146,138.5341881000022,138.51812600000267,138.51846620000288,138.5341881000022,139.53418560000136,139.51811670000097,139.51851420000094,139.53418560000136,141.23452739999993,141.21830120000232,141.21854399999938,141.23452739999993,141.23452739999993,,,141.88553690000117,1,1,stimuli/scissor.png,scissor,match,1,1,0.6406213999980537,,False,141.8858091000002,,,141.8858450000007,141.8858809000012,141.90097700000115,144.43434130000242,144.41825240000253,144.41830440000194,144.41834139999992,None,137.0340309000021,0.6406213999980537,None,,,,,sub-088,001,2025-06-10_15h24.05.961,FunctionalLocalizer,2024.2.4,61.28701505877722,1,2,"['1', '2']",2025-06-10 15h25.06.550769 -0400,
stimuli/face.png,zebra,mismatch,1.87,1.07,2,18,18,0,2,1,None,0.26472170000124606,None,,,0,18,18,18,144.43434130000242,,,,,,,,,,,,,,,,,144.4185580000012,144.43434130000242,0.00022150000222609378,144.917997200002,144.91805000000022,144.9340418000029,145.43414870000197,145.41833039999983,145.42092940000293,145.43414870000197,146.43418480000037,146.41801390000182,146.41825439999957,146.43418480000037,147.4341772000007,147.41820260000168,147.4185428000019,147.4341772000007,149.43418560000282,149.4182237999994,149.41848550000213,149.43418560000282,149.43418560000282,,,149.7022539999998,2,1,stimuli/face.png,zebra,mismatch,2,1,0.26472170000124606,,False,149.70260899999994,,,149.7026461000023,149.70268159999978,149.71766030000072,150.80063560000053,150.7844963000025,150.7845481000004,150.78458560000217,None,144.9340418000029,0.26472170000124606,None,,,,,sub-088,001,2025-06-10_15h24.05.961,FunctionalLocalizer,2024.2.4,61.28701505877722,1,2,"['1', '2']",2025-06-10 15h25.06.550769 -0400,
stimuli/scissor.png,zebra,mismatch,1.54,1.95,2,19,19,0,2,1,None,0.4981294999997772,None,,,0,19,19,19,150.80063560000053,,,,,,,,,,,,,,,,,150.78480169999966,150.80063560000053,0.00021970000307192095,151.284576500002,151.2846181999994,151.30053350000162,151.8027385000023,151.78468010000142,151.78676330000235,151.8027385000023,152.8174644000028,152.80120800000077,152.80146090000198,152.8174644000028,153.8174867000016,153.8013651000001,153.80157680000048,153.8174867000016,154.8174601000028,154.801675900002,154.80192030000035,154.8174601000028,154.8174601000028,,,155.31882510000287,2,1,stimuli/scissor.png,zebra,mismatch,2,1,0.4981294999997772,,False,155.31919850000122,,,155.31923740000275,155.31927500000165,155.33422410000276,157.28407570000127,157.26800510000248,157.2680591999997,157.2680958000019,None,151.30053350000162,0.4981294999997772,None,,,,,sub-088,001,2025-06-10_15h24.05.961,FunctionalLocalizer,2024.2.4,61.28701505877722,1,2,"['1', '2']",2025-06-10 15h25.06.550769 -0400,
stimuli/scissor.png,scissor,match,1.44,1.87,1,20,20,0,1,1,None,0.4932049000017287,None,,,0,20,20,20,157.28407570000127,,,,,,,,,,,,,,,,,157.26831540000057,157.28407570000127,0.00022499999977299012,157.76781240000128,157.76786340000035,157.78392460000032,,158.27278610000212,158.27377610000258,158.2893675000014,159.3004628000017,159.28467060000185,159.28501010000036,159.3004628000017,160.30602809999982,160.2897413999999,160.2898845000018,160.30602809999982,161.31737980000253,161.30135119999977,161.30159830000048,161.31737980000253,161.31737980000253,,,161.8184648000024,1,1,stimuli/scissor.png,scissor,match,1,1,0.4932049000017287,,False,161.81888430000254,,,161.8189278000027,161.81896770000094,161.833620100002,163.7172993000022,163.70130730000164,163.70136520000233,163.70140300000276,None,157.78392460000032,0.4932049000017287,None,,,,,sub-088,001,2025-06-10_15h24.05.961,FunctionalLocalizer,2024.2.4,61.28701505877722,1,2,"['1', '2']",2025-06-10 15h25.06.550769 -0400,
stimuli/zebra.png,face,mismatch,1.93,1.49,2,21,21,0,2,1,None,0.523126100000809,None,,,0,21,21,21,163.7172993000022,,,,,,,,,,,,,,,,,163.7016102000016,163.7172993000022,0.0002096999996865634,164.20109220000086,164.20113649999985,164.21724929999982,,164.7060326000028,164.70700299999953,164.7226079000029,165.73397300000215,165.7177281000004,165.71797660000084,165.73397300000215,166.73944630000187,166.72279619999972,166.72292990000278,166.73944630000187,168.63954070000182,168.6228325000011,168.6229639000012,168.63954070000182,168.63954070000182,,,169.16830839999966,2,1,stimuli/zebra.png,face,mismatch,2,1,0.523126100000809,,False,169.1686187000014,,,169.1686590999998,169.16869810000208,169.18395670000245,170.683933100001,170.6676619000027,170.6677230000023,170.66776310000205,None,164.21724929999982,0.523126100000809,None,,,,,sub-088,001,2025-06-10_15h24.05.961,FunctionalLocalizer,2024.2.4,61.28701505877722,1,2,"['1', '2']",2025-06-10 15h25.06.550769 -0400,
stimuli/scissor.png,zebra,mismatch,1.75,1.71,2,22,22,0,2,1,None,0.7268552999994427,None,,,0,22,22,22,170.683933100001,,,,,,,,,,,,,,,,,170.6679703000009,170.683933100001,0.00021049999850220047,171.16787190000105,171.16789900000003,171.18493950000266,171.68388659999982,171.66786920000231,171.67041489999974,171.68388659999982,172.68397560000085,172.66774160000205,172.6679605999998,172.68397560000085,173.6838521000027,173.66764610000246,173.66787930000282,173.6838521000027,175.28388130000167,175.26771010000084,175.26798319999943,175.28388130000167,175.28388130000167,,,176.01815040000292,2,1,stimuli/scissor.png,zebra,mismatch,2,1,0.7268552999994427,,False,176.01830540000083,,,176.01831930000117,176.0183324000027,176.03369080000266,177.75052330000108,177.7342415000021,177.73430120000194,177.7343409999994,None,171.18493950000266,0.7268552999994427,None,,,,,sub-088,001,2025-06-10_15h24.05.961,FunctionalLocalizer,2024.2.4,61.28701505877722,1,2,"['1', '2']",2025-06-10 15h25.06.550769 -0400,
stimuli/zebra.png,zebra,match,1.21,1.63,1,23,23,0,1,1,None,0.3560484000008728,None,,,0,23,23,23,177.75052330000108,,,,,,,,,,,,,,,,,177.73454810000112,177.75052330000108,0.00021070000002509914,178.2342615000016,178.23431410000194,178.250559600001,,178.7363213000026,178.73885780000273,178.75051780000285,179.75048199999947,179.73435679999966,179.7346032000023,179.75048199999947,180.75050380000175,180.73441319999984,180.73466980000012,180.75050380000175,181.95055830000274,181.93440030000056,181.93464710000262,181.95055830000274,181.95055830000274,,,182.31825030000255,1,1,stimuli/zebra.png,zebra,match,1,1,0.3560484000008728,,False,182.31865720000133,,,182.31869980000192,182.31874000000244,182.33380620000025,183.96713210000235,183.9510224000005,183.95107810000263,183.95111700000052,None,178.250559600001,0.3560484000008728,None,,,,,sub-088,001,2025-06-10_15h24.05.961,FunctionalLocalizer,2024.2.4,61.28701505877722,1,2,"['1', '2']",2025-06-10 15h25.06.550769 -0400,
stimuli/face.png,scissor,mismatch,1.77,2.76,2,24,24,0,2,1,None,0.6523663999978453,None,,,0,24,24,24,183.96713210000235,,,,,,,,,,,,,,,,,183.95132100000046,183.96713210000235,0.00020669999867095612,184.45074060000115,184.45078280000234,184.4671025000025,184.96717440000066,184.95095140000194,184.95426580000276,184.96717440000066,185.96711330000107,185.95100129999992,185.95123330000206,185.96711330000107,186.96714079999947,186.95111700000052,186.95145690000209,186.96714079999947,188.3670297000026,188.35088610000093,188.3510911000012,188.3670297000026,188.3670297000026,,,189.03474280000228,2,1,stimuli/face.png,scissor,mismatch,2,1,0.6523663999978453,,False,189.0350309000023,,,189.03506790000029,189.03510470000037,189.0504516000001,191.82449670000278,191.80615930000204,191.80618139999933,191.80619410000145,None,184.4671025000025,0.6523663999978453,None,,,,,sub-088,001,2025-06-10_15h24.05.961,FunctionalLocalizer,2024.2.4,61.28701505877722,1,2,"['1', '2']",2025-06-10 15h25.06.550769 -0400,
stimuli/banana.png,zebra,mismatch,1.92,1.09,2,25,25,0,2,1,None,0.45365140000285464,None,,,0,25,25,25,191.82449670000278,,,,,,,,,,,,,,,,,191.80628060000163,191.82449670000278,8.469999738736078e-05,192.31820739999966,192.31823190000068,192.33902490000037,,192.81717170000047,192.81980860000112,192.8337261000015,193.83347100000174,193.8168009000001,193.81710150000072,193.83347100000174,194.83365490000142,194.81747130000076,194.8177007000013,194.83365490000142,195.9337736000016,195.91750520000278,195.9177527000029,195.9337736000016,195.9337736000016,,,196.4019628999995,2,1,stimuli/banana.png,zebra,mismatch,2,1,0.45365140000285464,,False,196.40210990000196,,,196.40212240000255,196.40213530000256,196.4223634000009,197.51696960000118,197.50085659999968,197.50091310000062,197.50095220000003,None,,0.45365140000285464,None,,,,,sub-088,001,2025-06-10_15h24.05.961,FunctionalLocalizer,2024.2.4,61.28701505877722,1,2,"['1', '2']",2025-06-10 15h25.06.550769 -0400,
stimuli/face.png,face,match,1.53,2.39,1,26,26,0,1,1,None,0.8698001000011573,None,,,0,26,26,26,197.51696960000118,,,,,,,,,,,,,,,,,197.50117189999946,197.51696960000118,0.0002227000004495494,198.00076679999984,198.00081069999942,198.01692530000219,,198.50606600000174,198.50704020000194,198.52234880000105,199.53358370000205,199.51742400000148,199.51762750000125,199.53358370000205,200.5336750000024,200.51746790000107,200.51767699999982,200.5336750000024,201.9332632000005,201.9168583999999,201.91701180000018,201.9332632000005,201.9332632000005,,,202.81822640000246,1,1,stimuli/face.png,face,match,1,1,0.8698001000011573,,False,202.81851470000038,,,202.81854960000055,202.81858490000013,202.83359010000277,205.23361870000008,205.21756040000037,205.21761600000173,205.2176529999997,None,198.01692530000219,0.8698001000011573,None,,,,,sub-088,001,2025-06-10_15h24.05.961,FunctionalLocalizer,2024.2.4,61.28701505877722,1,2,"['1', '2']",2025-06-10 15h25.06.550769 -0400,
stimuli/scissor.png,face,mismatch,1.43,2.47,2,27,27,0,2,1,None,0.5012605000010808,None,,,0,27,27,27,205.23361870000008,,,,,,,,,,,,,,,,,205.21786780000184,205.23361870000008,0.00022019999960321002,205.71731659999932,205.71735930000068,205.73359120000168,206.23361300000033,206.21730560000287,206.21991089999938,206.23361300000033,207.23352060000252,207.21740230000069,207.2176595000019,207.23352060000252,208.2336217000011,208.21733660000245,208.2176498000008,208.2336217000011,209.7335430000021,209.71748750000188,209.717818000001,209.7335430000021,209.7335430000021,,,210.25140079999983,2,1,stimuli/scissor.png,face,mismatch,2,1,0.5012605000010808,,False,210.25186229999963,,,210.2518987000003,210.2519362000021,210.26691440000286,212.75017339999977,212.73421690000032,212.73428090000016,212.73432049999974,None,205.73359120000168,0.5012605000010808,None,,,,,sub-088,001,2025-06-10_15h24.05.961,FunctionalLocalizer,2024.2.4,61.28701505877722,1,2,"['1', '2']",2025-06-10 15h25.06.550769 -0400,
stimuli/face.png,banana,mismatch,1.28,2.76,2,28,28,0,2,1,None,0.3961039999994682,None,,,0,28,28,28,212.75017339999977,,,,,,,,,,,,,,,,,212.73453810000137,212.75017339999977,0.00022020000324118882,213.23390540000037,213.23393059999944,213.2555941999999,,213.73883870000282,213.73983170000065,213.7557779000017,214.76686490000066,214.75085200000103,214.75119140000243,214.76686490000066,215.7721445999996,215.75581990000137,215.75594280000223,215.7721445999996,217.38341950000176,217.3675617000008,217.3678875000005,217.38341950000176,217.38341950000176,,,217.78933770000003,2,1,stimuli/face.png,banana,mismatch,2,1,0.3961039999994682,,False,217.7895236000004,,,217.78953550000006,217.7895478999999,217.80547959999967,220.56679649999933,220.55064029999994,220.55070049999995,220.55073750000156,None,213.2555941999999,0.3961039999994682,None,,,,,sub-088,001,2025-06-10_15h24.05.961,FunctionalLocalizer,2024.2.4,61.28701505877722,1,2,"['1', '2']",2025-06-10 15h25.06.550769 -0400,
stimuli/banana.png,banana,match,1.19,1.22,1,29,29,0,1,1,None,0.28476140000202577,None,,,0,29,29,29,220.56679649999933,,,,,,,,,,,,,,,,,220.55094409999947,220.56679649999933,0.00021129999731783755,221.0505417000022,221.0505873000002,221.06667630000084,221.56671330000245,221.5509004000014,221.55353340000147,221.56671330000245,222.56673800000135,222.55060230000163,222.5508621000008,222.56673800000135,223.56678000000102,223.55064810000113,223.55095390000133,223.56678000000102,224.76671010000064,224.75064059999931,224.75109970000267,224.76671010000064,224.76671010000064,,,225.06755730000077,1,1,stimuli/banana.png,banana,match,1,1,0.28476140000202577,,False,225.06802620000235,,,225.06806620000134,225.06810270000278,225.08343070000046,226.3167018000022,226.3006822999996,226.30074550000063,226.30078640000283,None,221.06667630000084,0.28476140000202577,None,,,,,sub-088,001,2025-06-10_15h24.05.961,FunctionalLocalizer,2024.2.4,61.28701505877722,1,2,"['1', '2']",2025-06-10 15h25.06.550769 -0400,
stimuli/scissor.png,scissor,match,1.83,2.61,1,30,30,0,1,1,None,1.2216028999973787,None,,,0,30,30,30,226.3167018000022,,,,,,,,,,,,,,,,,226.30100330000278,226.3167018000022,0.00022140000146464445,226.8005144000017,226.8005701000002,226.81675499999983,227.31918860000224,227.30058460000146,227.3030976000009,227.31918860000224,228.33341760000258,228.31727010000031,228.31760130000112,228.33341760000258,229.3328629000025,229.3173777000011,229.31761760000154,229.3328629000025,230.53339720000076,230.51733190000232,230.51755890000277,230.53339720000076,230.53339720000076,,,231.76770570000008,1,1,stimuli/scissor.png,scissor,match,1,1,1.2216028999973787,,False,231.7679773000018,,,231.7680098000019,231.76804370000173,231.78329250000024,234.39999730000272,234.3836177000012,234.38364650000221,234.38366189999942,None,226.81675499999983,1.2216028999973787,None,,,,,sub-088,001,2025-06-10_15h24.05.961,FunctionalLocalizer,2024.2.4,61.28701505877722,1,2,"['1', '2']",2025-06-10 15h25.06.550769 -0400,
stimuli/scissor.png,face,mismatch,1.4,2.32,2,31,31,0,2,1,None,0.3427094999969995,None,,,0,31,31,31,234.39999730000272,,,,,,,,,,,,,,,,,234.38375799999994,234.39999730000272,9.539999882690609e-05,234.8837327000001,234.88377940000282,234.89988820000144,235.39999270000044,235.38352550000127,235.38467020000098,235.39999270000044,236.4000126000028,236.3833704000026,236.38364160000128,236.4000126000028,237.40002240000103,237.3839607000009,237.38429100000212,237.40002240000103,238.49996810000084,238.48397450000266,238.48420740000074,238.49996810000084,238.49996810000084,,,238.85099670000272,2,1,stimuli/scissor.png,face,mismatch,2,1,0.3427094999969995,,False,238.85126239999954,,,238.85129750000124,238.85133549999955,238.86655360000077,241.1999551000008,241.18371200000183,241.18376790000184,241.1838048000027,None,234.89988820000144,0.3427094999969995,None,,,,,sub-088,001,2025-06-10_15h24.05.961,FunctionalLocalizer,2024.2.4,61.28701505877722,1,2,"['1', '2']",2025-06-10 15h25.06.550769 -0400,
stimuli/zebra.png,zebra,match,1.24,1.87,1,32,32,0,1,1,None,1.1415392000017164,None,,,0,32,32,32,241.1999551000008,,,,,,,,,,,,,,,,,241.18401380000068,241.1999551000008,0.0002150999971490819,241.68375310000192,241.6838024000026,241.6998588000024,,242.18860620000123,242.1896099000005,242.20524900000237,243.21658260000186,243.20028250000178,243.20048900000256,243.21658260000186,244.2218313000012,244.2013833000019,244.20159140000032,244.2218313000012,245.93324550000034,245.91719840000223,245.91742739999972,245.93324550000034,245.93324550000034,,,247.08373620000202,1,1,stimuli/zebra.png,zebra,match,1,1,1.1415392000017164,,False,247.0840487000023,,,247.08407630000147,247.08410250000088,247.09955919999993,248.98322689999986,248.96702350000123,248.9670791000026,248.9671154000025,None,241.6998588000024,1.1415392000017164,None,,,,,sub-088,001,2025-06-10_15h24.05.961,FunctionalLocalizer,2024.2.4,61.28701505877722,1,2,"['1', '2']",2025-06-10 15h25.06.550769 -0400,
stimuli/face.png,face,match,1.03,1.64,1,33,33,0,1,1,None,1.3033294999986538,None,,,0,33,33,33,248.98322689999986,,,,,,,,,,,,,,,,,248.9673223000027,248.98322689999986,0.00021090000154799782,249.46691439999995,249.46696870000233,249.48316160000104,249.98320530000274,249.96709430000192,249.9705367000024,249.98320530000274,250.98308220000035,250.96692180000173,250.96715050000057,250.98308220000035,251.9831836000012,251.9669689000002,251.96718959999998,251.9831836000012,253.28322190000108,253.26697790000253,253.26723739999943,253.28322190000108,253.28322190000108,,,254.60040650000155,1,1,stimuli/face.png,face,match,1,1,1.3033294999986538,,False,254.60068520000277,,,254.60071430000244,254.60073990000092,254.61643630000253,256.26649140000154,256.25047280000217,256.25052570000116,256.2505612999994,None,249.48316160000104,1.3033294999986538,None,,,,,sub-088,001,2025-06-10_15h24.05.961,FunctionalLocalizer,2024.2.4,61.28701505877722,1,2,"['1', '2']",2025-06-10 15h25.06.550769 -0400,
stimuli/zebra.png,banana,mismatch,1.01,1.68,2,34,34,0,2,1,None,0.416674600000988,None,,,0,34,34,34,256.26649140000154,,,,,,,,,,,,,,,,,256.25076660000195,256.26649140000154,0.00020869999934802763,256.75281840000025,256.7528454000021,256.7667266000026,257.26650580000205,257.2502999000026,257.253413800001,257.26650580000205,258.26627759999974,258.25033280000207,258.2507390999999,258.26627759999974,259.2664334000001,259.2502028000017,259.25054699999964,259.2664334000001,260.86641640000016,260.8503515000011,260.8506880999994,260.86641640000016,260.86641640000016,,,261.30059170000095,2,1,stimuli/zebra.png,banana,mismatch,2,1,0.416674600000988,,False,261.3009396000016,,,261.3009821000014,261.30102160000024,261.31639800000266,263.00516680000146,262.98929670000143,262.98934759999975,262.9893833000024,None,,0.416674600000988,None,,,,,sub-088,001,2025-06-10_15h24.05.961,FunctionalLocalizer,2024.2.4,61.28701505877722,1,2,"['1', '2']",2025-06-10 15h25.06.550769 -0400,
stimuli/face.png,face,match,1.17,1.82,1,35,35,0,None,0,None,,,,,0,35,35,35,263.00516680000146,,,,,,,,,,,,,,,,,262.9896015000013,263.00516680000146,0.00022000000171829015,263.50105520000216,263.5010897000029,263.5175240999997,,263.9995877000001,264.00182499999937,264.0163917000027,265.01628130000245,265.00029370000266,265.0005471000004,265.01628130000245,266.02179290000277,266.00554530000227,266.0056785000015,266.02179290000277,267.93300830000226,267.91691250000076,267.9172556000012,267.93300830000226,267.93300830000226,269.9331173999999,269.9331173999999,269.9169634000027,None,0,stimuli/face.png,face,match,None,0,None,Délai de réponse dépassé. Veuillez répondre rapidement.,True,269.9213851000022,269.9331173999999,271.43300640000234,271.41691210000135,271.41696850000153,271.43300640000234,273.24967319999996,273.2360028000003,273.23606650000147,273.2361056000009,None,,,,,,,,sub-088,001,2025-06-10_15h24.05.961,FunctionalLocalizer,2024.2.4,61.28701505877722,1,2,"['1', '2']",2025-06-10 15h25.06.550769 -0400,
stimuli/scissor.png,scissor,match,1.64,1.44,1,36,36,0,1,1,None,0.47190199999749893,None,,,0,36,36,36,273.24967319999996,,,,,,,,,,,,,,,,,273.23631000000023,273.24967319999996,0.0002057999990938697,273.7331217000028,273.7331766000025,273.7495430000017,,274.2384180000008,274.2395122000016,274.25493330000245,275.2663595000013,275.25046660000226,275.2507880000012,275.2663595000013,276.26738020000266,276.25529090000055,276.25545000000056,276.26738020000266,277.6828067999995,277.66674590000184,277.6671223000012,277.6828067999995,277.6828067999995,,,278.17226420000225,1,1,stimuli/scissor.png,scissor,match,1,1,0.47190199999749893,,False,278.17285210000045,,,278.1728694000012,278.1728870000006,278.1882466999996,279.63294529999985,279.61688219999996,279.61694569999963,279.6169864000003,None,273.7495430000017,0.47190199999749893,None,,,,,sub-088,001,2025-06-10_15h24.05.961,FunctionalLocalizer,2024.2.4,61.28701505877722,1,2,"['1', '2']",2025-06-10 15h25.06.550769 -0400,
stimuli/zebra.png,face,mismatch,1.84,2.3,2,37,37,0,2,1,None,0.3263346999992791,None,,,0,37,37,37,279.63294529999985,,,,,,,,,,,,,,,,,279.6172073000016,279.63294529999985,0.00022360000002663583,280.11667339999985,280.1167262000017,280.1327517000027,280.63286660000085,280.6167294000006,280.6187953000008,280.63286660000085,281.63292960000035,281.6167641000029,281.6170674999994,281.63292960000035,282.6328009000026,282.6167983000014,282.6172869000002,282.6328009000026,284.3327943000004,284.31691760000103,284.3172745000011,284.3327943000004,284.3327943000004,,,284.667513700002,2,1,stimuli/zebra.png,face,mismatch,2,1,0.3263346999992791,,False,284.66791899999953,,,284.6679698000007,284.6680183000026,284.6827575999996,286.98277210000015,286.9667276,286.96679159999985,286.9668326000028,None,280.1327517000027,0.3263346999992791,None,,,,,sub-088,001,2025-06-10_15h24.05.961,FunctionalLocalizer,2024.2.4,61.28701505877722,1,2,"['1', '2']",2025-06-10 15h25.06.550769 -0400,
stimuli/face.png,scissor,mismatch,1.92,1.73,2,38,38,0,2,1,None,0.4842093000006571,None,,,0,38,38,38,286.98277210000015,,,,,,,,,,,,,,,,,286.96705660000225,286.98277210000015,0.0002268999996886123,287.4665660999999,287.46661790000144,287.4828880000023,287.9827535000004,287.9666486999995,287.9692458999998,287.9827535000004,288.9827648999999,288.9668281000013,288.96719250000024,288.9827648999999,289.9828471000001,289.9666113000021,289.9670154000014,289.9828471000001,291.1826753000023,291.1665075000019,291.16687450000245,291.1826753000023,291.1826753000023,,,291.68392420000237,2,1,stimuli/face.png,scissor,mismatch,2,1,0.4842093000006571,,False,291.68437760000234,,,291.68441639999946,291.68445319999955,291.6994932000016,293.4327250999995,293.4168219000021,293.4168858000012,293.41692610000246,None,287.4828880000023,0.4842093000006571,None,,,,,sub-088,001,2025-06-10_15h24.05.961,FunctionalLocalizer,2024.2.4,61.28701505877722,1,2,"['1', '2']",2025-06-10 15h25.06.550769 -0400,
stimuli/banana.png,banana,match,1.5,2.02,1,39,39,0,1,1,None,0.7388055000010354,None,,,0,39,39,39,293.4327250999995,,,,,,,,,,,,,,,,,293.4171516000024,293.4327250999995,0.00022950000129640102,293.91645490000155,293.91651060000004,293.9325658000016,294.4327688000012,294.41685470000084,294.4194024999997,294.4327688000012,295.43276440000045,295.41683159999957,295.41716590000215,295.43276440000045,296.4327363000011,296.41632740000205,296.41664429999946,296.4327363000011,298.03271040000254,298.0165503999997,298.016933400002,298.03271040000254,298.03271040000254,,,298.78388050000285,1,1,stimuli/banana.png,banana,match,1,1,0.7388055000010354,,False,298.7841006000017,,,298.78412390000085,298.78414610000254,298.7994026000015,300.82141550000233,300.8050194999996,300.80504590000055,300.80506160000004,None,293.9325658000016,0.7388055000010354,None,,,,,sub-088,001,2025-06-10_15h24.05.961,FunctionalLocalizer,2024.2.4,61.28701505877722,1,2,"['1', '2']",2025-06-10 15h25.06.550769 -0400,
stimuli/face.png,banana,mismatch,1.31,1.06,2,40,40,0,2,1,None,0.4827439000000595,None,,,0,40,40,40,300.82141550000233,,,,,,,,,,,,,,,,,300.80516360000183,300.82141550000233,0.00010169999950448982,301.3074497000016,301.3074689999994,301.31645729999946,301.81602360000034,301.7999282000019,301.80249670000194,301.81602360000034,302.81860230000166,302.7997901000017,302.8000987000014,302.81860230000166,303.8325758000028,303.81656060000023,303.81686959999934,303.8325758000028,305.83264340000096,305.81648459999997,305.81674470000144,305.83264340000096,305.83264340000096,,,306.31702510000105,2,1,stimuli/face.png,banana,mismatch,2,1,0.4827439000000595,,False,306.31732960000227,,,306.31736790000286,306.31740560000253,306.33254529999977,307.40043420000075,307.38409110000066,307.38411740000083,307.3841305999995,None,,0.4827439000000595,None,,,,,sub-088,001,2025-06-10_15h24.05.961,FunctionalLocalizer,2024.2.4,61.28701505877722,1,2,"['1', '2']",2025-06-10 15h25.06.550769 -0400,
stimuli/face.png,banana,mismatch,1.99,2.79,2,41,41,0,2,1,None,0.4716764000004332,None,,,0,41,41,41,307.40043420000075,,,,,,,,,,,,,,,,,307.38422300000093,307.40043420000075,9.080000018002465e-05,307.8878294000024,307.8878474000012,307.8994660999997,308.3993036000029,308.3827358000017,308.38378680000096,308.3993036000029,309.3994433000007,309.3828399000013,309.3829777000028,309.3994433000007,310.39939740000045,310.3827299000004,310.38294320000205,310.39939740000045,311.89922920000026,311.88321370000267,311.88353520000237,311.89922920000026,311.89922920000026,,,312.38394210000115,2,1,stimuli/face.png,banana,mismatch,2,1,0.4716764000004332,,False,312.38425540000026,,,312.3842906000027,312.3843225000019,312.3992736,315.1992766000003,315.1831305000014,315.183195900001,315.1832338000022,None,,0.4716764000004332,None,,,,,sub-088,001,2025-06-10_15h24.05.961,FunctionalLocalizer,2024.2.4,61.28701505877722,1,2,"['1', '2']",2025-06-10 15h25.06.550769 -0400,
stimuli/zebra.png,zebra,match,1.82,1.36,1,42,42,0,1,1,None,0.6506558999972185,None,,,0,42,42,42,315.1992766000003,,,,,,,,,,,,,,,,,315.1834463000014,315.1992766000003,0.00021600000036414713,315.68291580000005,315.6829625999999,315.6991847999998,,316.18879860000015,316.1898543000025,316.20029480000085,317.2160229000001,317.2000229000005,317.2002646000001,317.2160229000001,318.21700620000047,318.20061050000004,318.2011700000003,318.21700620000047,319.83245890000035,319.81647019999946,319.81677760000093,319.83245890000035,319.83245890000035,,,320.48816090000037,1,1,stimuli/zebra.png,zebra,match,1,1,0.6506558999972185,,False,320.4882921000026,,,320.48830310000267,320.48831490000157,320.50456960000156,321.86584500000026,321.84957380000196,321.84962350000205,321.84965880000163,None,315.6991847999998,0.6506558999972185,None,,,,,sub-088,001,2025-06-10_15h24.05.961,FunctionalLocalizer,2024.2.4,61.28701505877722,1,2,"['1', '2']",2025-06-10 15h25.06.550769 -0400,
stimuli/face.png,face,match,1.71,2.95,1,43,43,0,1,1,None,0.40085259999978007,None,,,0,43,43,43,321.86584500000026,,,,,,,,,,,,,,,,,321.8498591999996,321.86584500000026,0.00020399999993969686,322.3499322000025,322.3499628999998,322.3663841000016,322.8657354999996,322.8495853000022,322.8520118000015,322.8657354999996,323.8657138000017,323.84951010000077,323.84988590000285,323.8657138000017,324.8657502999995,324.84955980000086,324.84975269999995,324.8657502999995,325.8657913999996,325.84946520000085,325.84981510000216,325.8657913999996,325.8657913999996,,,326.2833360000004,1,1,stimuli/face.png,face,match,1,1,0.40085259999978007,,False,326.2835871999996,,,326.28362090000155,326.2836543000012,326.29900120000093,329.24902980000115,329.2329325000028,329.2329845999993,329.23302220000187,None,322.3663841000016,0.40085259999978007,None,,,,,sub-088,001,2025-06-10_15h24.05.961,FunctionalLocalizer,2024.2.4,61.28701505877722,1,2,"['1', '2']",2025-06-10 15h25.06.550769 -0400,
stimuli/zebra.png,scissor,mismatch,1.06,1.23,2,44,44,0,1,0,None,1.1197092000002158,None,,,0,44,44,44,329.24902980000115,,,,,,,,,,,,,,,,,329.233239600002,329.24902980000115,0.0002193000000261236,329.732859300002,329.7329047000021,329.748960500001,330.2489654000019,330.23289710000245,330.23504030000186,330.2489654000019,331.2489779999996,331.2329052000023,331.2332152000017,331.2489779999996,332.248982000001,332.2329951000029,332.23321360000045,332.248982000001,333.2511075000002,333.2330191000001,333.23325119999936,333.2511075000002,333.2511075000002,,,334.3838637000008,1,0,stimuli/zebra.png,scissor,mismatch,1,0,1.1197092000002158,Mauvaise réponse,True,334.38725329999943,334.3991096000027,335.89896150000277,335.8827609,335.88281610000195,335.89896150000277,337.13226550000036,337.11613209999996,337.1161807999997,337.1162151000026,None,329.748960500001,1.1197092000002158,None,,,,,sub-088,001,2025-06-10_15h24.05.961,FunctionalLocalizer,2024.2.4,61.28701505877722,1,2,"['1', '2']",2025-06-10 15h25.06.550769 -0400,
stimuli/zebra.png,zebra,match,1.77,2.99,1,45,45,0,1,1,None,0.36304609999933746,None,,,0,45,45,45,337.13226550000036,,,,,,,,,,,,,,,,,337.11641670000245,337.13226550000036,0.00020480000239331275,337.61613520000174,337.6161763000018,337.63219480000043,338.13225140000213,338.11605469999995,338.11860739999975,338.13225140000213,339.13224489999993,339.1162449000003,339.116487700001,339.13224489999993,340.1322876000013,340.11609339999995,340.1163154999995,340.1322876000013,341.63236379999944,341.6163417000025,341.61659670000154,341.63236379999944,341.63236379999944,,,342.0001599999996,1,1,stimuli/zebra.png,zebra,match,1,1,0.36304609999933746,,False,342.00134430000253,,,342.0013868999995,342.00142760000017,342.01561740000034,345.021120100002,345.00459580000097,345.0046194000024,345.00463180000224,None,337.63219480000043,0.36304609999933746,None,,,,,sub-088,001,2025-06-10_15h24.05.961,FunctionalLocalizer,2024.2.4,61.28701505877722,1,2,"['1', '2']",2025-06-10 15h25.06.550769 -0400,
stimuli/scissor.png,scissor,match,1.33,2.2,1,46,46,0,1,1,None,0.26759450000099605,None,,,0,46,46,46,345.021120100002,,,,,,,,,,,,,,,,,345.00471780000225,345.021120100002,8.560000060242601e-05,345.5069039000009,345.50692379999964,345.51579760000095,346.0155890999995,345.9997113999998,346.0022639000017,346.0155890999995,347.01557220000177,346.99940680000145,346.9997175000026,347.01557220000177,348.01559590000033,347.99944270000196,347.9996850000025,348.01559590000033,349.8155774000006,349.79924200000096,349.79952559999947,349.8155774000006,349.8155774000006,,,350.1000989000022,1,1,stimuli/scissor.png,scissor,match,1,1,0.26759450000099605,,False,350.10055750000174,,,350.10059730000285,350.10063450000234,350.115582800001,352.3153630000015,352.2989071000011,352.2989406000015,352.29895849999957,None,,0.26759450000099605,None,,,,,sub-088,001,2025-06-10_15h24.05.961,FunctionalLocalizer,2024.2.4,61.28701505877722,1,2,"['1', '2']",2025-06-10 15h25.06.550769 -0400,
stimuli/zebra.png,banana,mismatch,1.27,2.65,2,47,47,0,2,1,None,0.5438422999977774,None,,,0,47,47,47,352.3153630000015,,,,,,,,,,,,,,,,,352.2990651,352.3153630000015,0.0001064000025507994,352.79930290000266,352.79934910000156,352.81499690000055,,353.29903990000093,353.3022187000024,353.3155047,354.315443200001,354.2997161000021,354.2999675000028,354.315443200001,355.3154245000005,355.2993256000009,355.2995501000005,355.3154245000005,356.7155010999995,356.6993915000021,356.6996519000022,356.7155010999995,356.7155010999995,,,357.2665420000012,2,1,stimuli/zebra.png,banana,mismatch,2,1,0.5438422999977774,,False,357.2669792000015,,,357.2670214999998,357.2670625999999,357.28208480000103,359.93751880000127,359.91601230000015,359.9160774000011,359.91611770000236,None,352.81499690000055,0.5438422999977774,None,,,,,sub-088,001,2025-06-10_15h24.05.961,FunctionalLocalizer,2024.2.4,61.28701505877722,1,2,"['1', '2']",2025-06-10 15h25.06.550769 -0400,
stimuli/banana.png,banana,match,1.32,1.98,1,48,48,0,1,1,None,0.5983874999983527,None,,,0,48,48,48,359.93751880000127,,,,,,,,,,,,,,,,,359.91633300000103,359.93751880000127,0.00021850000121048652,360.4333406000005,360.4333628000022,360.4544356000006,,360.91667900000175,360.91842460000044,360.9330732000017,361.94872450000184,361.93273930000214,361.9330661000022,361.94872450000184,362.95061980000173,362.9366073000019,362.93680630000017,362.95061980000173,364.9651006999993,364.94859390000056,364.9487838000023,364.9651006999993,364.9651006999993,,,365.56659010000294,1,1,stimuli/banana.png,banana,match,1,1,0.5983874999983527,,False,365.56691990000036,,,365.5669572000006,365.56699389999994,365.5819835000002,367.5653103000004,367.5493634000013,367.54941619999954,367.54945249999946,None,,0.5983874999983527,None,,,,,sub-088,001,2025-06-10_15h24.05.961,FunctionalLocalizer,2024.2.4,61.28701505877722,1,2,"['1', '2']",2025-06-10 15h25.06.550769 -0400,
stimuli/zebra.png,face,mismatch,1.84,1.71,2,49,49,0,2,1,None,1.010218100000202,None,,,0,49,49,49,367.5653103000004,,,,,,,,,,,,,,,,,367.5496708000028,367.5653103000004,0.00022179999723448418,368.04906420000043,368.0491198000018,368.06523890000244,368.5653329000015,368.54925840000215,368.5526979000024,368.5653329000015,369.56532940000034,369.5492465999996,369.5495985000016,369.56532940000034,370.5656149999995,370.54933240000173,370.5496741999996,370.5656149999995,372.26525949999996,372.2493017000015,372.24961880000046,372.26525949999996,372.26525949999996,,,373.2883980000006,2,1,stimuli/zebra.png,face,mismatch,2,1,1.010218100000202,,False,373.2886928000007,,,373.2887167000008,373.28874050000013,373.2998297000013,375.01530240000284,374.99922890000016,374.9992921000012,374.99933220000094,None,368.06523890000244,1.010218100000202,None,,,,,sub-088,001,2025-06-10_15h24.05.961,FunctionalLocalizer,2024.2.4,61.28701505877722,1,2,"['1', '2']",2025-06-10 15h25.06.550769 -0400,
stimuli/zebra.png,scissor,mismatch,1.57,2.31,2,50,50,0,2,1,None,1.1197008999988611,None,,,0,50,50,50,375.01530240000284,,,,,,,,,,,,,,,,,374.9995516000017,375.01530240000284,0.0002234999992651865,375.5016410999997,375.5016635000029,375.5157121000011,376.0152796000002,375.9993211000001,376.00193290000243,376.0152796000002,377.01531610000166,376.9993097000006,376.9996385000013,377.01531610000166,378.0151680000017,377.99909820000175,377.99931950000246,378.0151680000017,379.31506960000115,379.299016500001,379.2992854000004,379.31506960000115,379.31506960000115,,,380.4495760000027,2,1,stimuli/zebra.png,scissor,mismatch,2,1,1.1197008999988611,,False,380.4499926999997,,,380.45003540000107,380.45007590000023,380.46520670000245,382.7818729999999,382.7655193000028,382.765572100001,382.7656096999999,None,,1.1197008999988611,None,,,,,sub-088,001,2025-06-10_15h24.05.961,FunctionalLocalizer,2024.2.4,61.28701505877722,1,2,"['1', '2']",2025-06-10 15h25.06.550769 -0400,
stimuli/face.png,face,match,1.14,2.98,1,51,51,0,2,0,None,1.0836275000001478,None,,,0,51,51,51,382.7818729999999,,,,,,,,,,,,,,,,,382.76581830000214,382.7818729999999,0.00021249999917927198,383.26543110000057,383.26546580000286,383.28185909999956,,383.771013900001,383.77197530000194,383.787290100001,384.79848870000205,384.7822898000013,384.7826913000026,384.79848870000205,385.8039721999994,385.78769889999967,385.78781549999985,385.8039721999994,386.81523460000244,386.7990602000027,386.79937110000174,386.81523460000244,386.81523460000244,,,387.9044132000017,2,0,stimuli/face.png,face,match,2,0,1.0836275000001478,Mauvaise réponse,True,387.90574520000155,387.9205443000028,,389.4151146000004,389.4151722000024,389.43182499999966,392.4151517999999,392.3988156000014,392.39887720000115,392.3989160000019,None,383.28185909999956,1.0836275000001478,None,,,,,sub-088,001,2025-06-10_15h24.05.961,FunctionalLocalizer,2024.2.4,61.28701505877722,1,2,"['1', '2']",2025-06-10 15h25.06.550769 -0400,
stimuli/face.png,zebra,mismatch,1.45,2.35,2,52,52,0,2,1,None,0.49603209999986575,None,,,0,52,52,52,392.4151517999999,,,,,,,,,,,,,,,,,392.39913890000025,392.4151517999999,0.00022610000087297522,392.8988528000009,392.89890560000276,392.9150002999995,393.4151683000018,393.3989115000004,393.4018580000011,393.4151683000018,394.4151703000025,394.3989255000015,394.39918500000203,394.4151703000025,395.41512449999937,395.3987981999999,395.3989925999995,395.41512449999937,396.7150677999998,396.6988557000004,396.6991056000006,396.7150677999998,396.7150677999998,,,397.2160702000001,2,1,stimuli/face.png,zebra,mismatch,2,1,0.49603209999986575,,False,397.21721439999965,,,397.2172552000011,397.2172974000023,397.23166610000044,399.58169110000017,399.5654276000023,399.5654854000022,399.5655241000022,None,392.9150002999995,0.49603209999986575,None,,,,,sub-088,001,2025-06-10_15h24.05.961,FunctionalLocalizer,2024.2.4,61.28701505877722,1,2,"['1', '2']",2025-06-10 15h25.06.550769 -0400,
stimuli/scissor.png,scissor,match,1.41,2.56,1,53,53,0,1,1,None,1.0856256000006397,None,,,0,53,53,53,399.58169110000017,,,,,,,,,,,,,,,,,399.565749100002,399.58169110000017,0.000225800002226606,400.06772210000054,400.0677426000002,400.0820291000018,400.58140640000056,400.5655323000028,400.56806420000066,400.58140640000056,401.58173259999967,401.56552680000095,401.56578830000217,401.58173259999967,402.5816560000021,402.5654375000013,402.5656557000002,402.5816560000021,403.7815819000025,403.7654896000022,403.7657541000008,403.7815819000025,403.7815819000025,,,404.88280990000203,1,1,stimuli/scissor.png,scissor,match,1,1,1.0856256000006397,,False,404.88314230000105,,,404.88318060000165,404.88321690000157,404.8985236000008,407.46484110000165,407.4487512000014,407.44881330000135,407.44885350000186,None,,1.0856256000006397,None,,,,,sub-088,001,2025-06-10_15h24.05.961,FunctionalLocalizer,2024.2.4,61.28701505877722,1,2,"['1', '2']",2025-06-10 15h25.06.550769 -0400,
stimuli/banana.png,zebra,mismatch,1.17,1.02,2,54,54,0,2,1,None,0.385278500001732,None,,,0,54,54,54,407.46484110000165,,,,,,,,,,,,,,,,,407.4490669000006,407.46484110000165,0.0002147999985027127,407.94868340000176,407.9487369000017,407.9647180000029,,408.4537805,408.4549365000021,408.4661537000029,409.4815998000013,409.4654816000002,409.46568500000285,409.4815998000013,410.4870264000019,410.4699385000022,410.47016910000093,410.4870264000019,411.49831280000217,411.48213020000185,411.48244970000087,411.49831280000217,411.49831280000217,,,411.89922090000255,2,1,stimuli/banana.png,zebra,mismatch,2,1,0.385278500001732,,False,411.89950410000165,,,411.89960710000014,411.8996521000008,411.9148703000028,412.94818920000034,412.9320912000003,412.93214100000114,412.93217450000157,None,407.9647180000029,0.385278500001732,None,,,,,sub-088,001,2025-06-10_15h24.05.961,FunctionalLocalizer,2024.2.4,61.28701505877722,1,2,"['1', '2']",2025-06-10 15h25.06.550769 -0400,
stimuli/banana.png,banana,match,1.17,2.65,1,55,55,0,1,1,None,1.358209900001384,None,,,0,55,55,55,412.94818920000034,,,,,,,,,,,,,,,,,412.9323863000027,412.94818920000034,0.00021809999816468917,413.4319171999996,413.4319695000013,413.4481029000017,413.9482231000002,413.93198380000103,413.9344894999995,413.9482231000002,414.9481844000002,414.93205020000096,414.9322705000013,414.9481844000002,415.95033200000034,415.9321592000015,415.9323439,415.95033200000034,417.9648062000015,417.9486011000008,417.9488375000001,417.9648062000015,417.9648062000015,,,419.3323937000023,1,1,stimuli/banana.png,banana,match,1,1,1.358209900001384,,False,419.3326541999995,,,419.3326876000028,419.33272059999945,419.34821600000214,421.99805600000036,421.981928600002,421.9819803999999,421.98201750000226,None,413.4481029000017,1.358209900001384,None,,,,,sub-088,001,2025-06-10_15h24.05.961,FunctionalLocalizer,2024.2.4,61.28701505877722,1,2,"['1', '2']",2025-06-10 15h25.06.550769 -0400,
stimuli/scissor.png,banana,mismatch,1.8,1.54,2,56,56,0,2,1,None,0.8975619999982882,None,,,0,56,56,56,421.99805600000036,,,,,,,,,,,,,,,,,421.98222950000127,421.99805600000036,0.0002153999994334299,422.4819602000025,422.48200519999955,422.4981520000001,422.9981818000015,422.98193380000157,422.9843887999996,422.9981818000015,423.99819019999995,423.98201450000124,423.9822793000021,423.99819019999995,424.9981136999995,424.9819239000026,424.9821609000028,424.9981136999995,426.6980102000016,426.68186210000204,426.68222349999996,426.6980102000016,426.6980102000016,,,427.5992729000027,2,1,stimuli/scissor.png,banana,mismatch,2,1,0.8975619999982882,,False,427.5995585000019,,,427.5995913000006,427.59962749999977,427.6147770000025,429.16462420000244,429.14860930000214,429.1486607000006,429.1486967000019,None,422.4981520000001,0.8975619999982882,None,,,,,sub-088,001,2025-06-10_15h24.05.961,FunctionalLocalizer,2024.2.4,61.28701505877722,1,2,"['1', '2']",2025-06-10 15h25.06.550769 -0400,
stimuli/banana.png,face,mismatch,1.82,2.46,2,57,57,0,2,1,None,0.23413540000183275,None,,,0,57,57,57,429.16462420000244,,,,,,,,,,,,,,,,,429.1489010000005,429.16462420000244,0.0002091999995172955,429.6485809000005,429.64863660000265,429.6646040000014,430.1644417999996,430.14875720000055,430.1514040000002,430.1644417999996,431.1646326000009,431.1485579,431.14884639999946,431.1646326000009,432.1647494000026,432.1485642000007,432.14884900000106,432.1647494000026,433.6647462000001,433.64848279999933,433.64878920000046,433.6647462000001,433.6647462000001,,,433.9157484999996,2,1,stimuli/banana.png,face,mismatch,2,1,0.23413540000183275,,False,433.916049200001,,,433.9160886999998,433.9161263999995,433.93128210000214,436.3981160000003,436.38152489999993,436.3815510000022,436.38156510000044,None,429.6646040000014,0.23413540000183275,None,,,,,sub-088,001,2025-06-10_15h24.05.961,FunctionalLocalizer,2024.2.4,61.28701505877722,1,2,"['1', '2']",2025-06-10 15h25.06.550769 -0400,
stimuli/zebra.png,zebra,match,1.18,1.04,1,58,58,0,1,1,None,0.35094220000246423,None,,,0,58,58,58,436.3981160000003,,,,,,,,,,,,,,,,,436.38165840000147,436.3981160000003,9.169999975711107e-05,436.88188640000226,436.8819427000017,436.8975324000021,437.3980616000008,437.3820372000009,437.3845738000018,437.3980616000008,438.3978784000028,438.3817033000014,438.38189030000285,438.3978784000028,439.3981130000029,439.3820326000023,439.38236250000045,439.3981130000029,441.09978129999945,441.08208970000123,441.08243330000187,441.09978129999945,441.09978129999945,,,441.4658049999998,1,1,stimuli/zebra.png,zebra,match,1,1,0.35094220000246423,,False,441.46624580000207,,,441.4662829000008,441.46631830000115,441.4813787000021,442.53131620000204,442.5151063000012,442.51516400000037,442.5152044999995,None,436.8975324000021,0.35094220000246423,None,,,,,sub-088,001,2025-06-10_15h24.05.961,FunctionalLocalizer,2024.2.4,61.28701505877722,1,2,"['1', '2']",2025-06-10 15h25.06.550769 -0400,
stimuli/scissor.png,scissor,match,1.71,1.14,1,59,59,0,1,1,None,0.47233869999763556,None,,,0,59,59,59,442.53131620000204,,,,,,,,,,,,,,,,,442.51541780000116,442.53131620000204,0.000216500000533415,443.0150082,443.0150534000022,443.0311251000021,,443.5184337999999,443.5194396000006,443.530933500002,444.53130560000136,444.5147434999999,444.51490980000017,444.53130560000136,445.5310008000015,445.5160658999994,445.5161619999999,445.5310008000015,446.7311609000026,446.7150717000004,446.71535829999993,446.7311609000026,446.7311609000026,,,447.21576579999964,1,1,stimuli/scissor.png,scissor,match,1,1,0.47233869999763556,,False,447.2160844000027,,,447.21612470000036,447.2161636000019,447.2312396000016,448.3814216000028,448.3650465999999,448.36510120000094,448.36513639999976,None,443.0311251000021,0.47233869999763556,None,,,,,sub-088,001,2025-06-10_15h24.05.961,FunctionalLocalizer,2024.2.4,61.28701505877722,1,2,"['1', '2']",2025-06-10 15h25.06.550769 -0400,
stimuli/scissor.png,zebra,mismatch,1.33,1.28,2,60,60,0,2,1,None,0.2752853999991203,None,,,0,60,60,60,448.3814216000028,,,,,,,,,,,,,,,,,448.36536310000156,448.3814216000028,0.00023070000315783545,448.86495950000244,448.8650097000027,448.8808207000002,,449.3700408000004,449.37105590000283,449.3867796000013,450.3980107000025,450.3811913999998,450.3813009000005,450.3980107000025,451.3991129999995,451.3827308,451.38284940000085,451.3991129999995,453.3202170000004,453.3002125000021,453.3004426000007,453.3202170000004,453.3202170000004,,,453.60369170000195,2,1,stimuli/scissor.png,zebra,mismatch,2,1,0.2752853999991203,,False,453.60391900000104,,,453.6039328000006,453.6039460000029,453.6200408000004,454.9144062000014,454.8984366000004,454.89848820000043,454.8985261000016,None,448.8808207000002,0.2752853999991203,None,,,,,sub-088,001,2025-06-10_15h24.05.961,FunctionalLocalizer,2024.2.4,61.28701505877722,1,2,"['1', '2']",2025-06-10 15h25.06.550769 -0400,
stimuli/banana.png,banana,match,1.03,1.83,1,61,61,0,1,1,None,0.5929860000032932,None,,,0,61,61,61,454.9144062000014,,,,,,,,,,,,,,,,,454.89874300000156,454.9144062000014,0.00022190000163391232,455.39824560000125,455.39830110000185,455.41434350000054,455.91453580000234,455.8984221000028,455.9010502000019,455.91453580000234,456.9144387000015,456.8984995999999,456.8987245000026,456.9144387000015,457.9144296000013,457.8978253999994,457.8979440000003,457.9144296000013,458.91412649999984,458.8984461,458.89879590000055,458.91412649999984,458.91412649999984,,,459.5162713000027,1,1,stimuli/banana.png,banana,match,1,1,0.5929860000032932,,False,459.5164809000016,,,459.51649330000146,459.51650620000146,459.53246710000167,461.3644419000011,461.34830169999987,461.3483578000014,461.3483962999999,None,455.41434350000054,0.5929860000032932,None,,,,,sub-088,001,2025-06-10_15h24.05.961,FunctionalLocalizer,2024.2.4,61.28701505877722,1,2,"['1', '2']",2025-06-10 15h25.06.550769 -0400,
stimuli/banana.png,banana,match,1.42,2.85,1,62,62,0,1,1,None,0.3946317000009003,None,,,0,62,62,62,461.3644419000011,,,,,,,,,,,,,,,,,461.3486105000011,461.3644419000011,0.00021800000104121864,461.8505154000013,461.8505447000025,461.86480239999946,462.36436420000246,462.34793360000185,462.3505017999996,462.36436420000246,463.36421750000227,463.34829360000003,463.34851360000175,463.36421750000227,464.3643523000028,464.34806590000153,464.34832120000283,464.3643523000028,465.66447470000276,465.6482175000019,465.64853310000035,465.66447470000276,465.66447470000276,,,466.0702029000022,1,1,stimuli/banana.png,banana,match,1,1,0.3946317000009003,,False,466.07034209999983,,,466.07035370000085,466.07036540000263,466.0866477000018,468.94775140000274,468.93135840000105,468.9314073000023,468.9314422999996,None,,0.3946317000009003,None,,,,,sub-088,001,2025-06-10_15h24.05.961,FunctionalLocalizer,2024.2.4,61.28701505877722,1,2,"['1', '2']",2025-06-10 15h25.06.550769 -0400,
stimuli/face.png,scissor,mismatch,1.31,2.76,2,63,63,0,2,1,None,0.5343057999998564,None,,,0,63,63,63,468.94775140000274,,,,,,,,,,,,,,,,,468.93164830000023,468.94775140000274,0.00020980000044801272,469.4316394000016,469.43169510000007,469.4475428000005,469.94766979999986,469.9315478999997,469.9340646000019,469.94766979999986,470.94990379999945,470.93145430000004,470.9316508000011,470.94990379999945,471.96433340000294,471.9481194,471.9483254000006,471.96433340000294,473.3643665000018,473.3480335000022,473.3482640000002,473.3643665000018,473.3643665000018,,,473.91531250000116,2,1,stimuli/face.png,scissor,mismatch,2,1,0.5343057999998564,,False,473.91561990000264,,,473.91565990000163,473.9156968999996,473.9309716000025,476.6974724000029,476.68151130000115,476.68157450000217,476.6816135000008,None,469.4475428000005,0.5343057999998564,None,,,,,sub-088,001,2025-06-10_15h24.05.961,FunctionalLocalizer,2024.2.4,61.28701505877722,1,2,"['1', '2']",2025-06-10 15h25.06.550769 -0400,
stimuli/face.png,zebra,mismatch,1.3,1.65,2,64,64,0,2,1,None,0.9333731000006082,None,,,0,64,64,64,476.6974724000029,,,,,,,,,,,,,,,,,476.6818318000005,476.6974724000029,0.0002220999995188322,477.1806991000012,477.18071730000156,477.19711710000047,477.69763629999943,477.6814564000015,477.6839843000016,477.69763629999943,478.6976689000003,478.6814250000025,478.68166890000066,478.6976689000003,479.6975439000016,479.6814056000003,479.68160290000014,479.6975439000016,481.1974512000015,481.18125820000205,481.1816032000024,481.1974512000015,481.1974512000015,,,482.13254009999946,2,1,stimuli/face.png,zebra,mismatch,2,1,0.9333731000006082,,False,482.1328097000005,,,482.1328450000001,482.13288040000043,482.1476075000028,483.7974772000016,483.7811306000003,483.78116280000177,483.78118090000135,None,477.19711710000047,0.9333731000006082,None,,,,,sub-088,001,2025-06-10_15h24.05.961,FunctionalLocalizer,2024.2.4,61.28701505877722,1,2,"['1', '2']",2025-06-10 15h25.06.550769 -0400,
stimuli/scissor.png,scissor,match,1.83,1.71,1,65,65,0,1,1,None,0.36103019999791286,None,,,0,65,65,65,483.7974772000016,,,,,,,,,,,,,,,,,483.78128950000246,483.7974772000016,0.00010919999840552919,484.28137290000086,484.2814274000011,484.3031754000003,,484.7976907000011,484.80044660000203,484.81405430000086,485.81413450000036,485.79818259999956,485.7984615999994,485.81413450000036,486.8141149000003,486.79793260000224,486.79817230000117,486.8141149000003,488.71390170000086,488.6975130999999,488.6976532000008,488.71390170000086,488.71390170000086,,,489.0816515000006,1,1,stimuli/scissor.png,scissor,match,1,1,0.36103019999791286,,False,489.08197010000004,,,489.0820144999998,489.0820560000029,489.0975238000028,490.81423410000207,490.79805300000226,490.79811379999956,490.79815170000074,None,484.3031754000003,0.36103019999791286,None,,,,,sub-088,001,2025-06-10_15h24.05.961,FunctionalLocalizer,2024.2.4,61.28701505877722,1,2,"['1', '2']",2025-06-10 15h25.06.550769 -0400,
stimuli/zebra.png,zebra,match,1.11,1.34,1,66,66,0,1,1,None,0.5938936999991711,None,,,0,66,66,66,490.81423410000207,,,,,,,,,,,,,,,,,490.79836590000195,490.81423410000207,0.00022019999960321002,491.29793580000114,491.29797900000267,491.3137922999995,491.81419860000096,491.79810030000226,491.8007924000012,491.81419860000096,492.8139477000004,492.7979407000021,492.79818720000185,492.8139477000004,493.81405559999985,493.79800760000217,493.7983158999996,493.81405559999985,494.9136357000025,494.89801980000266,494.8983623000022,494.9136357000025,494.9136357000025,,,495.51479330000075,1,1,stimuli/zebra.png,zebra,match,1,1,0.5938936999991711,,False,495.5150042000023,,,495.5150176999996,495.51503109999976,495.53077269999994,496.8808237000012,496.8647529000009,496.8648064000008,496.86484250000285,None,491.3137922999995,0.5938936999991711,None,,,,,sub-088,001,2025-06-10_15h24.05.961,FunctionalLocalizer,2024.2.4,61.28701505877722,1,2,"['1', '2']",2025-06-10 15h25.06.550769 -0400,
stimuli/scissor.png,banana,mismatch,1.13,2.11,2,67,67,0,2,1,None,1.3132381000032183,None,,,0,67,67,67,496.8808237000012,,,,,,,,,,,,,,,,,496.8650574000021,496.8808237000012,0.0002190000013797544,497.36448160000145,497.36453050000273,497.3808390000013,497.8827607000021,497.86468930000046,497.86733710000044,497.8827607000021,498.8974593000021,498.8815192000002,498.8818659000026,498.8974593000021,499.89748330000293,499.8814741999995,499.8817162000014,499.89748330000293,500.8974804999998,500.881223700002,500.8814601000013,500.8974804999998,500.8974804999998,,,502.2147619999996,2,1,stimuli/scissor.png,banana,mismatch,2,1,1.3132381000032183,,False,502.2148986000029,,,502.21490970000013,502.2149215000027,502.2307791000021,504.3473241000029,504.33068950000234,504.3307134000024,504.33072580000226,None,497.3808390000013,1.3132381000032183,None,,,,,sub-088,001,2025-06-10_15h24.05.961,FunctionalLocalizer,2024.2.4,61.28701505877722,1,2,"['1', '2']",2025-06-10 15h25.06.550769 -0400,
stimuli/banana.png,zebra,mismatch,1.99,2.59,2,68,68,0,2,1,None,0.38511579999976675,None,,,0,68,68,68,504.3473241000029,,,,,,,,,,,,,,,,,504.3308085000026,504.3473241000029,8.270000034826808e-05,504.8310530000017,504.8310730000012,504.84858280000117,,505.34747020000214,505.3501216000004,505.3640446999998,506.363982400002,506.34790240000075,506.3481103000013,506.363982400002,507.3640402000019,507.34789960000126,507.3482249000008,507.3640402000019,508.9695855000027,508.95316810000077,508.95328750000044,508.9695855000027,508.9695855000027,,,509.36505600000237,2,1,stimuli/banana.png,zebra,mismatch,2,1,0.38511579999976675,,False,509.36533500000223,,,509.36536949999936,509.3654002000003,509.3806141000023,511.9807467000028,511.96449140000186,511.964549100001,511.9645892000008,None,,0.38511579999976675,None,,,,,sub-088,001,2025-06-10_15h24.05.961,FunctionalLocalizer,2024.2.4,61.28701505877722,1,2,"['1', '2']",2025-06-10 15h25.06.550769 -0400,
stimuli/banana.png,banana,match,1.16,2.19,1,69,69,0,1,1,None,0.45874039999762317,None,,,0,69,69,69,511.9807467000028,,,,,,,,,,,,,,,,,511.964803400002,511.9807467000028,0.00021750000087195076,512.4643505999993,512.4644009000003,512.4805428,512.980649000001,512.9647073000015,512.9673567999998,512.980649000001,513.9804887999999,513.9645361000003,513.9648885999995,513.9804887999999,514.9805514,514.966737900002,514.9669551000006,514.9805514,516.0805048000002,516.064529700001,516.0647564000028,516.0805048000002,516.0805048000002,,,516.5484075999993,1,1,stimuli/banana.png,banana,match,1,1,0.45874039999762317,,False,516.5487148000029,,,516.548752900002,516.548788600001,516.5639097000021,518.763921400001,518.747899500002,518.7479638000004,518.7480033000029,None,512.4805428,0.45874039999762317,None,,,,,sub-088,001,2025-06-10_15h24.05.961,FunctionalLocalizer,2024.2.4,61.28701505877722,1,2,"['1', '2']",2025-06-10 15h25.06.550769 -0400,
stimuli/face.png,face,match,1.4,1.38,1,70,70,0,1,1,None,1.201380300000892,None,,,0,70,70,70,518.763921400001,,,,,,,,,,,,,,,,,518.7482216000026,518.763921400001,0.00022220000028028153,519.2477896000019,519.2478461000028,519.2638356000025,519.7639030999999,519.747769900001,519.7503785000008,519.7639030999999,520.7638886999994,520.7478943000024,520.7481540000008,520.7638886999994,521.7638585999994,521.7478155999997,521.7482156000005,521.7638585999994,523.5694967000018,523.5528255999998,523.5529572000014,523.5694967000018,523.5694967000018,,,524.78154,1,1,stimuli/face.png,face,match,1,1,1.201380300000892,,False,524.7818423999997,,,524.7818823000016,524.7819202999999,524.7972236999994,526.1804499999998,526.1645214000018,526.1645855999996,526.1646260000016,None,519.2638356000025,1.201380300000892,None,,,,,sub-088,001,2025-06-10_15h24.05.961,FunctionalLocalizer,2024.2.4,61.28701505877722,1,2,"['1', '2']",2025-06-10 15h25.06.550769 -0400,
stimuli/zebra.png,banana,mismatch,1.66,1.54,2,71,71,0,2,1,None,0.3945961999997962,None,,,0,71,71,71,526.1804499999998,,,,,,,,,,,,,,,,,526.1648557000008,526.1804499999998,0.00023289999808184803,526.6642374000003,526.6642871000004,526.6805270000004,527.1804695000028,527.1644023000008,527.1669694000011,527.1804695000028,528.1804134000013,528.1644527000026,528.1648018000014,528.1804134000013,529.1804747999995,529.1644675999996,529.1648558000015,529.1804747999995,530.2804484000008,530.2644782999996,530.2648098999998,530.2804484000008,530.2804484000008,,,530.6816662000019,2,1,stimuli/zebra.png,banana,mismatch,2,1,0.3945961999997962,,False,530.6820482000003,,,530.682088900001,530.6821290000007,530.6969970000027,532.2470066999995,532.2311625000002,532.2312259999999,532.2312655999995,None,526.6805270000004,0.3945961999997962,None,,,,,sub-088,001,2025-06-10_15h24.05.961,FunctionalLocalizer,2024.2.4,61.28701505877722,1,2,"['1', '2']",2025-06-10 15h25.06.550769 -0400,
stimuli/banana.png,zebra,mismatch,1.09,2.93,2,72,72,0,2,1,None,0.44456870000067283,None,,,0,72,72,72,532.2470066999995,,,,,,,,,,,,,,,,,532.2314869000002,532.2470066999995,0.00022489999901154079,532.732527600001,532.7325471000004,532.7468695999996,533.2470294000013,533.2310840999999,533.233809100002,533.2470294000013,534.2471441000016,534.2311150999994,534.2314450000013,534.2471441000016,535.2470118000019,535.2308787000002,535.2312327,535.2470118000019,536.4470202000011,536.4310274000018,536.4313253,536.4470202000011,536.4470202000011,,,536.8981975000024,2,1,stimuli/banana.png,zebra,mismatch,2,1,0.44456870000067283,,False,536.8993511000008,,,536.8993937000014,536.8994332000002,536.9136848000016,539.8525386000001,539.8363232000011,539.8363463999995,539.8363590000008,None,,0.44456870000067283,None,,,,,sub-088,001,2025-06-10_15h24.05.961,FunctionalLocalizer,2024.2.4,61.28701505877722,1,2,"['1', '2']",2025-06-10 15h25.06.550769 -0400,
stimuli/scissor.png,scissor,match,1.54,2.87,1,73,73,0,1,1,p,0.3100941000011517,None,14.267885500001285,None,0,73,73,73,539.8525386000001,,,,,,,,,,,,,,,,,539.8364423000021,539.8525386000001,8.280000110971741e-05,540.3402530000021,540.340272100002,540.3472382,540.8469953000022,540.8309368000009,540.8334007000012,540.8469953000022,541.8469404999996,541.8309049000018,541.8312767000025,541.8469404999996,542.8470474000023,542.8309398000019,542.8311661000007,542.8470474000023,544.4526762999994,544.4364452000009,544.4365429999998,544.4526762999994,544.4526762999994,,,544.7646419000012,1,1,stimuli/scissor.png,scissor,match,1,1,0.3100941000011517,,False,544.764919600002,,,544.7649574999996,544.7649953,544.7803058999998,547.6635458000019,547.6475435000029,547.6475993999993,561.9478001999996,p,,0.3100941000011517,None,547.6635458000019,547.6635458000019,14.267885500001285,None,sub-088,001,2025-06-10_15h24.05.961,FunctionalLocalizer,2024.2.4,61.28701505877722,1,2,"['1', '2']",2025-06-10 15h25.06.550769 -0400,
stimuli/zebra.png,banana,mismatch,1.42,2.81,2,74,74,0,2,1,None,0.3920192000005045,None,,,0,74,74,74,561.9634910000023,,,,,,,,,,,,,,,,,561.9480610999999,561.9634910000023,0.0002378999997745268,562.4472676000005,562.4473156999993,562.4635052000012,562.9634869000001,562.9472961000029,562.9498421000026,562.9634869000001,563.9634659000003,563.9472908999996,563.9475687000013,563.9634659000003,564.9634516000006,564.9471924999998,564.9474236999995,564.9634516000006,566.1634682000004,566.1472875,566.1475661000004,566.1634682000004,566.1634682000004,,,566.5645879000003,2,1,stimuli/zebra.png,banana,mismatch,2,1,0.3920192000005045,,False,566.5649119000009,,,566.5649542000028,566.5649936000009,566.5801173,569.3967269999994,569.3805420999997,569.3805704000006,569.3805845999996,None,562.4635052000012,0.3920192000005045,None,,,,,sub-088,001,2025-06-10_15h24.05.961,FunctionalLocalizer,2024.2.4,61.28701505877722,1,2,"['1', '2']",2025-06-10 15h25.06.550769 -0400,
stimuli/banana.png,banana,match,1.62,1.32,1,75,75,0,1,1,None,0.5343785000004573,None,,,0,75,75,75,569.3967269999994,,,,,,,,,,,,,,,,,569.3806736000006,569.3967269999994,8.729999899514951e-05,569.8802133000027,569.8802569,569.896551400001,570.3968321000029,570.3799075000024,570.3809249000005,570.3968321000029,571.3967499000028,571.3802147999995,571.3803506000004,571.3967499000028,572.3967537000026,572.3802331000006,572.3803496,572.3967537000026,573.5966398000019,573.5804367000019,573.5807072999996,573.5966398000019,573.5966398000019,,,574.1476917,1,1,stimuli/banana.png,banana,match,1,1,0.5343785000004573,,False,574.1479921000027,,,574.148030700002,574.1480711000004,574.1633610000026,575.4965809999994,575.4803840999994,575.4804379000016,575.4804731000004,None,569.896551400001,0.5343785000004573,None,,,,,sub-088,001,2025-06-10_15h24.05.961,FunctionalLocalizer,2024.2.4,61.28701505877722,1,2,"['1', '2']",2025-06-10 15h25.06.550769 -0400,
stimuli/zebra.png,face,mismatch,1.77,1.44,2,76,76,0,2,1,None,0.39088749999791617,None,,,0,76,76,76,575.4965809999994,,,,,,,,,,,,,,,,,575.4806807000023,575.4965809999994,0.00021130000095581636,575.9804497000005,575.9805038000013,575.9964927000001,576.4965870000015,576.4805979000012,576.4833921999998,576.4965870000015,577.4967018000025,577.480517,577.4808475000027,577.4967018000025,578.4963594000001,578.4804605000027,578.4807758999996,578.4963594000001,579.7966923000022,579.780450000002,579.7807132000016,579.7966923000022,579.7966923000022,,,580.1976458999998,2,1,stimuli/zebra.png,face,mismatch,2,1,0.39088749999791617,,False,580.1980323999996,,,580.1980746000008,580.1981130999993,580.2128937000016,581.6632591000016,581.647103700001,581.6471627999999,581.6472030000004,None,575.9964927000001,0.39088749999791617,None,,,,,sub-088,001,2025-06-10_15h24.05.961,FunctionalLocalizer,2024.2.4,61.28701505877722,1,2,"['1', '2']",2025-06-10 15h25.06.550769 -0400,
stimuli/banana.png,banana,match,1.22,2.5,1,77,77,0,1,1,None,0.38804650000020047,None,,,0,77,77,77,581.6632591000016,,,,,,,,,,,,,,,,,581.6474192999995,581.6632591000016,0.00021840000044903718,582.1470107999994,582.1470571000027,582.1633228999999,582.6632339999996,582.6471619000004,582.6505448999997,582.6632339999996,583.6632857000004,583.6472506000027,583.6476294000022,583.6632857000004,584.6631774000016,584.6470351999997,584.6472618000007,584.6631774000016,585.8632467000025,585.8469774000005,585.8471516000027,585.8632467000025,585.8632467000025,,,586.2643003000012,1,1,stimuli/banana.png,banana,match,1,1,0.38804650000020047,,False,586.2646195000016,,,586.2646581000008,586.2646953000003,586.2798569000006,588.7797191999998,588.7639275000001,588.763976000002,588.7640113000016,None,582.1633228999999,0.38804650000020047,None,,,,,sub-088,001,2025-06-10_15h24.05.961,FunctionalLocalizer,2024.2.4,61.28701505877722,1,2,"['1', '2']",2025-06-10 15h25.06.550769 -0400,
stimuli/face.png,zebra,mismatch,1.36,1.89,2,78,78,0,2,1,None,0.26315840000097523,None,,,0,78,78,78,588.7797191999998,,,,,,,,,,,,,,,,,588.7642158000017,588.7797191999998,0.000207199998840224,589.2646986,589.2647477999999,589.2803851999997,589.7795232999997,589.7636717000023,589.7663743000012,589.7795232999997,590.7796906000003,590.763722300002,590.7639512999995,590.7796906000003,591.7799138000009,591.7637811000022,591.7640668000022,591.7799138000009,593.779674100002,593.7638097000017,593.7641653999999,593.779674100002,593.779674100002,,,594.0477815000013,2,1,stimuli/face.png,zebra,mismatch,2,1,0.26315840000097523,,False,594.0481466000019,,,594.0481820999994,594.048217800002,594.0631955000026,595.9631339000007,595.9470966000008,595.947157300001,595.9471950000006,None,589.2803851999997,0.26315840000097523,None,,,,,sub-088,001,2025-06-10_15h24.05.961,FunctionalLocalizer,2024.2.4,61.28701505877722,1,2,"['1', '2']",2025-06-10 15h25.06.550769 -0400,
stimuli/face.png,face,match,1.96,2.6,1,79,79,0,1,1,None,0.884328899999673,None,,,0,79,79,79,595.9631339000007,,,,,,,,,,,,,,,,,595.9474117999998,595.9631339000007,0.00022220000028028153,596.4468524000004,596.4468962000028,596.4630687000026,596.9631477000003,596.9471285,596.9499247000022,596.9631477000003,597.9631574000014,597.9469567000015,597.9471857000026,597.9631574000014,598.9631468000007,598.9469115000029,598.9471376000001,598.9631468000007,600.4630508000009,600.4469696000015,600.4472267000019,600.4630508000009,600.4630508000009,,,601.3645002000012,1,1,stimuli/face.png,face,match,1,1,0.884328899999673,,False,601.3649694000014,,,601.3650049000025,601.3650404,601.379641800002,603.9797590000016,603.9635168999994,603.9635765000021,603.9636164000003,None,596.4630687000026,0.884328899999673,None,,,,,sub-088,001,2025-06-10_15h24.05.961,FunctionalLocalizer,2024.2.4,61.28701505877722,1,2,"['1', '2']",2025-06-10 15h25.06.550769 -0400,
stimuli/zebra.png,zebra,match,1.31,1.75,1,80,80,0,1,1,None,0.44784100000106264,None,,,0,80,80,80,603.9797590000016,,,,,,,,,,,,,,,,,603.9638302000021,603.9797590000016,0.0002179000002797693,604.4634141999995,604.4634598000011,604.479742800002,604.9797209000026,604.9635755000018,604.9660438000028,604.9797209000026,605.979760000002,605.9636546000002,605.9638909999994,605.979760000002,606.9798271,606.9636921000019,606.9640667000021,606.9798271,608.1796377999999,608.1634264999993,608.1637549000006,608.1796377999999,608.1796377999999,,,608.6306853999995,1,1,stimuli/zebra.png,zebra,match,1,1,0.44784100000106264,,False,608.6309927000002,,,608.6310335000016,608.631073200002,608.6466045000016,610.3964186000012,610.3804936000015,610.3805585000009,610.3805979000026,None,604.479742800002,0.44784100000106264,None,,,,,sub-088,001,2025-06-10_15h24.05.961,FunctionalLocalizer,2024.2.4,61.28701505877722,1,2,"['1', '2']",2025-06-10 15h25.06.550769 -0400,
stimuli/zebra.png,face,mismatch,1.87,1.27,2,81,81,0,2,1,None,0.45904999999766005,None,,,0,81,81,81,610.3964186000012,,,,,,,,,,,,,,,,,610.3808312000001,610.3964186000012,0.00023709999732091092,610.8800297000016,610.8800736000012,610.8963256999996,611.3963674000006,611.3798693000026,611.3809547000019,611.3963674000006,612.3963825000028,612.380182500001,612.380414700001,612.3963825000028,613.3963715000027,613.3802710000018,613.3806416000007,613.3963715000027,615.0964297000028,615.0801439000024,615.080410300001,615.0964297000028,615.0964297000028,,,615.5642324,2,1,stimuli/zebra.png,face,mismatch,2,1,0.45904999999766005,,False,615.5647052999993,,,615.5647482000022,615.5647876000003,615.5795777000021,616.862889,616.8468614000012,616.8469244000007,616.8469653000029,None,610.8963256999996,0.45904999999766005,None,,,,,sub-088,001,2025-06-10_15h24.05.961,FunctionalLocalizer,2024.2.4,61.28701505877722,1,2,"['1', '2']",2025-06-10 15h25.06.550769 -0400,
stimuli/scissor.png,banana,mismatch,1.5,2.29,2,82,82,0,2,1,None,0.4273680999976932,None,,,0,82,82,82,616.862889,,,,,,,,,,,,,,,,,616.8471845999993,616.862889,0.00022340000214171596,617.3466482000003,617.3467029000021,617.3628248000023,,617.8518903000004,617.8532520000008,617.868566000001,618.879654700002,618.8634167000018,618.8637646999996,618.879654700002,619.8809104000029,619.8640796,619.8643346999997,619.8809104000029,621.0962080999998,621.0802244000006,621.0806760000014,621.0962080999998,621.0962080999998,,,621.5309684000022,2,1,stimuli/scissor.png,banana,mismatch,2,1,0.4273680999976932,,False,621.5313427000001,,,621.5313827000027,621.5314228999996,621.5462745000004,623.8487319000014,623.830193400001,623.8302574000008,623.8302973000027,None,617.3628248000023,0.4273680999976932,None,,,,,sub-088,001,2025-06-10_15h24.05.961,FunctionalLocalizer,2024.2.4,61.28701505877722,1,2,"['1', '2']",2025-06-10 15h25.06.550769 -0400,
stimuli/face.png,face,match,1.88,1.44,1,83,83,0,1,1,None,0.3963624999996682,None,,,0,83,83,83,623.8487319000014,,,,,,,,,,,,,,,,,623.8305211000006,623.8487319000014,0.00022759999774280004,624.3518755000005,624.3518958999994,624.3685181000001,,624.8351394000019,624.8361739000029,624.8474447000008,625.8630073000022,625.8468914000005,625.8472361999993,625.8630073000022,626.8624552000001,626.8495178000012,626.8497043999996,626.8624552000001,628.0628577000025,628.0467142000016,628.0470563000017,628.0628577000025,628.0628577000025,,,628.4637426000008,1,1,stimuli/face.png,face,match,1,1,0.3963624999996682,,False,628.4640680000011,,,628.4641076000007,628.4641460000021,628.4794672999997,629.9293709000012,629.9135156000011,629.9135692000018,629.9136049000008,None,,0.3963624999996682,None,,,,,sub-088,001,2025-06-10_15h24.05.961,FunctionalLocalizer,2024.2.4,61.28701505877722,1,2,"['1', '2']",2025-06-10 15h25.06.550769 -0400,
stimuli/banana.png,face,mismatch,1.92,1.32,2,84,84,0,2,1,None,0.40006200000061654,None,,,0,84,84,84,629.9293709000012,,,,,,,,,,,,,,,,,629.9138067000022,629.9293709000012,0.00020679999943240546,630.4134019000012,630.4134565000022,630.4293797999999,,630.9184091999996,630.9193975000017,630.9351148000023,631.9462543000009,631.9299114999994,631.9301409,631.9462543000009,632.9483857000014,632.9309363000029,632.931061700001,632.9483857000014,633.9629320000022,633.9466740999997,633.9470118000027,633.9629320000022,633.9629320000022,,,634.3638821999994,2,1,stimuli/banana.png,face,mismatch,2,1,0.40006200000061654,,False,634.3641437000006,,,634.3641779999998,634.3642137000024,634.3791000000019,635.7144936000004,635.6965839000004,635.6966438000018,635.6966815000014,None,630.4293797999999,0.40006200000061654,None,,,,,sub-088,001,2025-06-10_15h24.05.961,FunctionalLocalizer,2024.2.4,61.28701505877722,1,2,"['1', '2']",2025-06-10 15h25.06.550769 -0400,
stimuli/zebra.png,zebra,match,1.83,2.57,1,85,85,0,1,1,None,1.057770999999775,None,,,0,85,85,85,635.7144936000004,,,,,,,,,,,,,,,,,635.6969040000004,635.7144936000004,0.00022499999977299012,636.212789600002,636.212832600002,636.2293802999993,,636.7124303000019,636.7135449000016,636.7290016000006,637.7294521000003,637.7132601000012,637.7135987000001,637.7294521000003,638.7294078000014,638.7133515999994,638.7135670999996,638.7294078000014,639.9292583000024,639.9131909999996,639.9135330999998,639.9292583000024,639.9292583000024,,,641.0021366000001,1,1,stimuli/zebra.png,zebra,match,1,1,1.057770999999775,,False,641.0022892000015,,,641.0023027000025,641.0023153000002,641.0140586000016,643.5959809000015,643.5801081999998,643.5801702999997,643.5802100000001,None,,1.057770999999775,None,,,,,sub-088,001,2025-06-10_15h24.05.961,FunctionalLocalizer,2024.2.4,61.28701505877722,1,2,"['1', '2']",2025-06-10 15h25.06.550769 -0400,
stimuli/scissor.png,zebra,mismatch,1.35,2.6,2,86,86,0,2,1,None,1.139568300000974,None,,,0,86,86,86,643.5959809000015,,,,,,,,,,,,,,,,,643.5804416999999,643.5959809000015,0.00023539999892818742,644.0789681999995,644.0789872999994,644.0955581000017,644.5959939999993,644.5797784000024,644.5823627999998,644.5959939999993,645.5959105000002,645.5799646000014,645.5802165999994,645.5959105000002,646.5959366999996,646.5797911000009,646.5801775,646.5959366999996,647.6959534000016,647.6798020999995,647.6802089000012,647.6959534000016,647.6959534000016,,,648.8522125000018,2,1,stimuli/scissor.png,zebra,mismatch,2,1,1.139568300000974,,False,648.8523899000029,,,648.8524051999993,648.8524217000013,648.8683378000023,651.4792879000015,651.4631836000008,651.4632407000026,651.4632783000015,None,644.0955581000017,1.139568300000974,None,,,,,sub-088,001,2025-06-10_15h24.05.961,FunctionalLocalizer,2024.2.4,61.28701505877722,1,2,"['1', '2']",2025-06-10 15h25.06.550769 -0400,
stimuli/banana.png,banana,match,1.9,2.89,1,87,87,0,1,1,None,0.4363928999991913,None,,,0,87,87,87,651.4792879000015,,,,,,,,,,,,,,,,,651.463493700001,651.4792879000015,0.00021950000154902227,651.9629362000014,651.9629798999995,651.9793338000018,652.4792758000003,652.4630405000025,652.4666539999998,652.4792758000003,653.4794383000008,653.4630587000029,653.4633117000012,653.4794383000008,654.4792613999998,654.4629807000019,654.4633157000026,654.4792613999998,655.4792463000013,655.4630739999993,655.4634189000026,655.4792463000013,655.4792463000013,,,655.9304216000019,1,1,stimuli/banana.png,banana,match,1,1,0.4363928999991913,,False,655.9307456000024,,,655.9307891999997,655.9308304000006,655.945926700002,658.8458307000001,658.8301175000015,658.8301768000019,658.8302155000019,None,651.9793338000018,0.4363928999991913,None,,,,,sub-088,001,2025-06-10_15h24.05.961,FunctionalLocalizer,2024.2.4,61.28701505877722,1,2,"['1', '2']",2025-06-10 15h25.06.550769 -0400,
stimuli/zebra.png,zebra,match,1.25,1.6,1,88,88,0,1,1,None,0.6634429999976419,None,,,0,88,88,88,658.8458307000001,,,,,,,,,,,,,,,,,658.8304282000026,658.8458307000001,0.00021829999968758784,659.3305270000019,659.3305815000022,659.3465996000014,659.845857700002,659.8297908000022,659.8324651000003,659.845857700002,660.8458428000013,660.8300388999996,660.8302906000026,660.8458428000013,661.8454622000027,661.8337903000029,661.8339121999998,661.8454622000027,663.6516928000019,663.6309273000006,663.6312767000018,663.6516928000019,663.6516928000019,,,664.3300724000001,1,1,stimuli/zebra.png,zebra,match,1,1,0.6634429999976419,,False,664.3304701000015,,,664.3305093000017,664.3305455000009,664.3457928000025,665.9457408000017,665.9297165000025,665.9297743000025,665.9298120000021,None,659.3465996000014,0.6634429999976419,None,,,,,sub-088,001,2025-06-10_15h24.05.961,FunctionalLocalizer,2024.2.4,61.28701505877722,1,2,"['1', '2']",2025-06-10 15h25.06.550769 -0400,
stimuli/scissor.png,face,mismatch,1.88,2.39,2,89,89,0,2,1,None,0.8690084999980172,None,,,0,89,89,89,665.9457408000017,,,,,,,,,,,,,,,,,665.9300277000002,665.9457408000017,0.00021980000019539148,666.4294451999995,666.4294924000023,666.4456511000026,666.9457914000013,666.9295010999995,666.932149100001,666.9457914000013,667.9456972000007,667.9296766000007,667.9299554000027,667.9456972000007,668.9457839000024,668.929804200001,668.9301261,668.9457839000024,670.6457657999999,670.6297403000026,670.6300136000027,670.6457657999999,670.6457657999999,,,671.5302138000006,2,1,stimuli/scissor.png,face,mismatch,2,1,0.8690084999980172,,False,671.5306127000003,,,671.5306555999996,671.5306961999995,671.5457835000016,673.9470402000006,673.9305478000024,673.9305746000027,673.9305906000009,None,666.4456511000026,0.8690084999980172,None,,,,,sub-088,001,2025-06-10_15h24.05.961,FunctionalLocalizer,2024.2.4,61.28701505877722,1,2,"['1', '2']",2025-06-10 15h25.06.550769 -0400,
stimuli/zebra.png,zebra,match,1.99,1.05,1,90,90,0,2,0,None,0.9045915999995486,None,,,0,90,90,90,673.9470402000006,,,,,,,,,,,,,,,,,673.9306821000027,673.9470402000006,9.130000034929253e-05,674.4471393000022,674.4471641000018,674.4680077000012,,674.9458498000022,674.9487331000018,674.9624404000024,675.9623495000014,675.9463276999995,675.946668200002,675.9623495000014,676.9625814999999,676.9463476000019,676.9466978000019,676.9625814999999,678.9622751000024,678.9462239000022,678.9464195,678.9622751000024,678.9622751000024,,,679.8801937000026,2,0,stimuli/zebra.png,zebra,match,2,0,0.9045915999995486,Mauvaise réponse,True,679.8831965000027,679.8955671000003,681.3957857000023,681.3797202999995,681.3797874000011,681.3957857000023,682.4456667000013,682.4294819999996,682.4295361000004,682.4295751999998,None,,0.9045915999995486,None,,,,,sub-088,001,2025-06-10_15h24.05.961,FunctionalLocalizer,2024.2.4,61.28701505877722,1,2,"['1', '2']",2025-06-10 15h25.06.550769 -0400,
stimuli/banana.png,banana,match,1.01,2.2,1,91,91,0,1,1,None,0.4687463000009302,None,,,0,91,91,91,682.4456667000013,,,,,,,,,,,,,,,,,682.4297942000012,682.4456667000013,0.00022230000104173087,682.930717700001,682.9307412000016,682.9459008000013,,683.4460018000027,683.4479174000007,683.4621349000008,684.4622447000002,684.4461757999998,684.4464762000025,684.4622447000002,685.4621621000006,685.4455613999999,685.4457469000008,685.4621621000006,687.4622529000007,687.4457698000006,687.4461188000023,687.4622529000007,687.4622529000007,,,687.9465206999994,1,1,stimuli/banana.png,banana,match,1,1,0.4687463000009302,,False,687.9475349000022,,,687.9475784000024,687.9476211000001,687.9622449000017,690.1619658000018,690.1460624000028,690.1461197000026,690.1461587000013,None,,0.4687463000009302,None,,,,,sub-088,001,2025-06-10_15h24.05.961,FunctionalLocalizer,2024.2.4,61.28701505877722,1,2,"['1', '2']",2025-06-10 15h25.06.550769 -0400,
stimuli/banana.png,face,mismatch,1.92,1.56,2,92,92,0,2,1,None,0.3684719999982917,None,,,0,92,92,92,690.1619658000018,,,,,,,,,,,,,,,,,690.1463747000016,690.1619658000018,0.00021859999833395705,690.6460081000005,690.6460637000018,690.6621778000008,691.1621965000013,691.1461030999999,691.1483213000029,691.1621965000013,692.1622524000013,692.1460563,692.1462753000014,692.1622524000013,693.1623364000006,693.1459132000018,693.1460588000009,693.1623364000006,694.5622213999995,694.5459173000017,694.5462497000008,694.5622213999995,694.5622213999995,,,694.9464872999997,2,1,stimuli/banana.png,face,mismatch,2,1,0.3684719999982917,,False,694.9468169000029,,,694.9468498999995,694.9468841000016,694.962142700002,696.528769200002,696.5127476000016,696.512800200002,696.5128371999999,None,690.6621778000008,0.3684719999982917,None,,,,,sub-088,001,2025-06-10_15h24.05.961,FunctionalLocalizer,2024.2.4,61.28701505877722,1,2,"['1', '2']",2025-06-10 15h25.06.550769 -0400,
stimuli/scissor.png,zebra,mismatch,1.04,2.24,2,93,93,0,2,1,None,1.0100978999980725,None,,,0,93,93,93,696.528769200002,,,,,,,,,,,,,,,,,696.5130542000006,696.528769200002,0.00022170000011101365,697.0140388,697.0140766000004,697.0285318000024,697.5287992000012,697.5126466000002,697.5152457000004,697.5287992000012,698.5288075999997,698.512600500002,698.5128600999997,698.5288075999997,699.5287809000001,699.5126270000001,699.5128404999996,699.5287809000001,701.1287785999994,701.1125075000018,701.1128377999994,701.1287785999994,701.1287785999994,,,702.1468883000016,2,1,stimuli/scissor.png,zebra,mismatch,2,1,1.0100978999980725,,False,702.1472910000011,,,702.1473327000022,702.1473705000026,702.1619572000018,704.4121462000003,704.3956975000001,704.3957324000003,704.3957501000004,None,,1.0100978999980725,None,,,,,sub-088,001,2025-06-10_15h24.05.961,FunctionalLocalizer,2024.2.4,61.28701505877722,1,2,"['1', '2']",2025-06-10 15h25.06.550769 -0400,
stimuli/zebra.png,zebra,match,1.28,1.65,1,94,94,0,1,1,None,0.910346100001334,None,,,0,94,94,94,704.4121462000003,,,,,,,,,,,,,,,,,704.3958641000027,704.4121462000003,0.00011319999975967221,704.8954164000024,704.8954602000013,704.9119776000007,705.4179008000028,705.3961657,705.3987737000025,705.4179008000028,706.4287046999998,706.4126290000022,706.412958500001,706.4287046999998,707.4345431000002,707.4181779000028,707.4183889000014,707.4345431000002,709.0451690000009,709.0293973000007,709.0296650000018,709.0451690000009,709.0451690000009,,,709.9631155000025,1,1,stimuli/zebra.png,zebra,match,1,1,0.910346100001334,,False,709.9634538999999,,,709.963495,709.9635352000005,709.9784169000013,711.6281553000008,711.6136197000014,711.6136434,711.6136564000008,None,704.9119776000007,0.910346100001334,None,,,,,sub-088,001,2025-06-10_15h24.05.961,FunctionalLocalizer,2024.2.4,61.28701505877722,1,2,"['1', '2']",2025-06-10 15h25.06.550769 -0400,
stimuli/scissor.png,zebra,mismatch,1.72,2.05,2,95,95,0,2,1,None,0.37087769999925513,None,,,0,95,95,95,711.6281553000008,,,,,,,,,,,,,,,,,711.6137431000025,711.6281553000008,8.610000077169389e-05,712.1121466000004,712.1121782000009,712.1284286000009,712.6284892000003,712.612008600001,712.6131662000007,712.6284892000003,713.6282812999998,713.6167265000004,713.6168335000002,713.6282812999998,714.6286598000006,714.6124555999995,714.6127016000028,714.6286598000006,715.9286654000025,715.9125714000002,715.9128490000003,715.9286654000025,715.9286654000025,,,716.3129399000027,2,1,stimuli/scissor.png,zebra,mismatch,2,1,0.37087769999925513,,False,716.3132351000022,,,716.3132762999994,716.3133148000015,716.3286628999995,718.3784231999998,718.3623766000019,718.3624251000001,718.3624581000004,None,712.1284286000009,0.37087769999925513,None,,,,,sub-088,001,2025-06-10_15h24.05.961,FunctionalLocalizer,2024.2.4,61.28701505877722,1,2,"['1', '2']",2025-06-10 15h25.06.550769 -0400,
stimuli/zebra.png,face,mismatch,1.13,2.04,2,96,96,0,2,1,None,0.32860669999718084,None,,,0,96,96,96,718.3784231999998,,,,,,,,,,,,,,,,,718.3626662000024,718.3784231999998,0.00021100000230944715,718.8624387000018,718.8624847000028,718.8784642999999,719.3786034000004,719.3622611999999,719.3633257000001,719.3786034000004,720.378400900001,720.3623697000003,720.3626103000024,720.378400900001,721.3783721,721.3623910999995,721.3626091000006,721.3783721,722.5782739000024,722.5650591000012,722.5654145000008,722.5782739000024,722.5782739000024,,,722.9131030999997,2,1,stimuli/zebra.png,face,mismatch,2,1,0.32860669999718084,,False,722.9133922000001,,,722.9134274999997,722.9134628000029,722.9282999000025,724.9785517000018,724.9624342000025,724.9624939000023,724.9625343000007,None,718.8784642999999,0.32860669999718084,None,,,,,sub-088,001,2025-06-10_15h24.05.961,FunctionalLocalizer,2024.2.4,61.28701505877722,1,2,"['1', '2']",2025-06-10 15h25.06.550769 -0400,
stimuli/banana.png,banana,match,1.39,2.46,1,97,97,0,1,1,None,0.5188589000026695,None,,,0,97,97,97,724.9785517000018,,,,,,,,,,,,,,,,,724.9627581999994,724.9785517000018,0.00022840000019641593,725.4617949000021,725.4618192000016,725.4782085000006,,725.9675592000021,725.9687914999995,725.984338000002,726.9951078000013,726.9791571999995,726.9793532000003,726.9951078000013,728.0008307000026,727.9843748000021,727.9845439000019,728.0008307000026,729.0118516000002,728.9957558000024,728.9959650000019,729.0118516000002,729.0118516000002,,,729.5463438000006,1,1,stimuli/banana.png,banana,match,1,1,0.5188589000026695,,False,729.546713300002,,,729.5467527000001,729.5467896000009,729.5617869000016,732.0282329000001,732.0146730000015,732.0147178000007,732.0147410999998,None,725.4782085000006,0.5188589000026695,None,,,,,sub-088,001,2025-06-10_15h24.05.961,FunctionalLocalizer,2024.2.4,61.28701505877722,1,2,"['1', '2']",2025-06-10 15h25.06.550769 -0400,
stimuli/face.png,scissor,mismatch,1.39,2.21,2,98,98,0,1,0,None,0.6536759000009624,None,,,0,98,98,98,732.0282329000001,,,,,,,,,,,,,,,,,732.0149087000027,732.0282329000001,0.00031659999876865186,732.5121512000005,732.5121969000029,732.5285058000009,733.0283751000024,733.0123251000005,733.014938700002,733.0283751000024,734.0300879000024,734.016456100002,734.0166157000021,734.0300879000024,735.0450844000006,735.028967000002,735.0291738000014,735.0450844000006,736.2450857000003,736.2287308000014,736.2289531999995,736.2450857000003,736.2450857000003,,,736.9131396000012,1,0,stimuli/face.png,scissor,mismatch,1,0,0.6536759000009624,Mauvaise réponse,True,736.916488400002,736.9283928000004,738.4284439000003,738.4123204000025,738.4123909000009,738.4284439000003,740.6448937000023,740.6288860000022,740.6289324000027,740.6289682999995,None,732.5285058000009,0.6536759000009624,None,,,,,sub-088,001,2025-06-10_15h24.05.961,FunctionalLocalizer,2024.2.4,61.28701505877722,1,2,"['1', '2']",2025-06-10 15h25.06.550769 -0400,
stimuli/zebra.png,zebra,match,1.93,1.05,1,99,99,0,1,1,None,1.1458705999975791,None,,,0,99,99,99,740.6448937000023,,,,,,,,,,,,,,,,,740.6291727000025,740.6448937000023,0.00020710000171675347,741.1282057999997,741.1282250000004,741.1446675000007,741.6451627999995,741.6290740000004,741.6318095999995,741.6451627999995,742.6450912,742.6291019000018,742.6293737000015,742.6450912,743.6450355000015,743.6288276000014,743.6291237000005,743.6450355000015,744.7450714000006,744.7286987000007,744.7289640000017,744.7450714000006,744.7450714000006,,,745.8960262,1,1,stimuli/zebra.png,zebra,match,1,1,1.1458705999975791,,False,745.8970669000009,,,745.8971089000006,745.8971501000015,745.9117141999996,746.9612632000026,746.9446645999997,746.9446860999997,746.944698700001,None,741.1446675000007,1.1458705999975791,None,,,,,sub-088,001,2025-06-10_15h24.05.961,FunctionalLocalizer,2024.2.4,61.28701505877722,1,2,"['1', '2']",2025-06-10 15h25.06.550769 -0400,
